<?xml version='1.0' encoding='utf-8'?>
<ODM FileOID="ODM.CDASH.POC" Granularity="Metadata" AsOfDateTime="2025-08-12T20:47:30.017591+00:00" CreationDateTime="2025-08-12T20:47:30.017591+00:00" ODMVersion="1.3.2" FileType="Snapshot" Originator="Lex Jansen" SourceSystem="odmlib" SourceSystemVersion="0.1" xmlns="http://www.cdisc.org/ns/odm/v1.3" xmlns:xs="http://www.w3.org/2001/XMLSchema-instance" xmlns:xml="http://www.w3.org/XML/1998/namespace" xmlns:xlink="http://www.w3.org/1999/xlink"><Study OID="ODM.CDASH.STUDY"><GlobalVariables><StudyName>CDISC360i CDASH POC Study</StudyName><StudyDescription>CDISC360i CDASH POC Study</StudyDescription><ProtocolName>CDISC360i CDASH POC Study protocol</ProtocolName></GlobalVariables><MetaDataVersion OID="ODM.CDASH.STUDY.MDV" Name="CDISC360i CDASH POC Study Metadata Version" Description="CDISC360i CDASH ODM 1.3.2 metadata version"><FormDef OID="FORM.SU_LZZT" Name="Substance Use Habits LZZT" Repeating="No"><Description><TranslatedText xml:lang="en">Substance Use Habits LZZT</TranslatedText></Description><ItemGroupRef ItemGroupOID="IG.SU_HABITS_SMOKING_1" OrderNumber="1" Mandatory="Yes" /><ItemGroupRef ItemGroupOID="IG.SU_HABITS_ALCOHOL_2" OrderNumber="2" Mandatory="Yes" /><ItemGroupRef ItemGroupOID="IG.SU_HABITS_CAFFEINE_3" OrderNumber="3" Mandatory="Yes" /><Alias Context="formAnnotation" Name="DOMAIN = SC" /></FormDef><ItemGroupDef OID="IG.SU_HABITS_SMOKING_1" Name="HABITS : SMOKING" Repeating="No"><ItemRef ItemOID="IT.SU_HABITS_SMOKING_1_SU_360_1.SUYN" OrderNumber="1" Mandatory="Yes" /><ItemRef ItemOID="IT.SU_HABITS_SMOKING_1_CIGARETTEHX_360_2.SUTRT" OrderNumber="3" Mandatory="Yes" /><ItemRef ItemOID="IT.SU_HABITS_SMOKING_1_CIGARETTEHX_360_2.SUOCCUR" OrderNumber="5" Mandatory="Yes" /><ItemRef ItemOID="IT.SU_HABITS_SMOKING_1_CIGARETTEHX_360_2.SUDSTXT" OrderNumber="6" Mandatory="Yes" /><ItemRef ItemOID="IT.SU_HABITS_SMOKING_1_CIGARETTEHX_360_2.SUDOSU" OrderNumber="7" Mandatory="Yes" /><ItemRef ItemOID="IT.SU_HABITS_SMOKING_1_CIGARETTEHX_360_2.SUSTDAT" OrderNumber="8" Mandatory="Yes" /><ItemRef ItemOID="IT.SU_HABITS_SMOKING_1_CIGARETTEHX_360_2.SUPRIOR" OrderNumber="9" Mandatory="No" /><ItemRef ItemOID="IT.SU_HABITS_SMOKING_1_CIGARETTEHX_360_2.SUENDAT" OrderNumber="10" Mandatory="No" /><ItemRef ItemOID="IT.SU_HABITS_SMOKING_1_CIGARETTEHX_360_2.SUONGO" OrderNumber="11" Mandatory="No" /><ItemRef ItemOID="IT.SU_HABITS_SMOKING_1_CIGARHX_360_3.SUTRT" OrderNumber="13" Mandatory="Yes" /><ItemRef ItemOID="IT.SU_HABITS_SMOKING_1_CIGARHX_360_3.SUOCCUR" OrderNumber="15" Mandatory="Yes" /><ItemRef ItemOID="IT.SU_HABITS_SMOKING_1_CIGARHX_360_3.SUDSTXT" OrderNumber="16" Mandatory="Yes" /><ItemRef ItemOID="IT.SU_HABITS_SMOKING_1_CIGARHX_360_3.SUDOSU" OrderNumber="17" Mandatory="Yes" /><ItemRef ItemOID="IT.SU_HABITS_SMOKING_1_CIGARHX_360_3.SUSTDAT" OrderNumber="18" Mandatory="Yes" /><ItemRef ItemOID="IT.SU_HABITS_SMOKING_1_CIGARHX_360_3.SUPRIOR" OrderNumber="19" Mandatory="No" /><ItemRef ItemOID="IT.SU_HABITS_SMOKING_1_CIGARHX_360_3.SUENDAT" OrderNumber="20" Mandatory="No" /><ItemRef ItemOID="IT.SU_HABITS_SMOKING_1_CIGARHX_360_3.SUONGO" OrderNumber="21" Mandatory="No" /><ItemRef ItemOID="IT.SU_HABITS_SMOKING_1_PIPEHX_360_4.SUTRT" OrderNumber="23" Mandatory="Yes" /><ItemRef ItemOID="IT.SU_HABITS_SMOKING_1_PIPEHX_360_4.SUOCCUR" OrderNumber="25" Mandatory="Yes" /><ItemRef ItemOID="IT.SU_HABITS_SMOKING_1_PIPEHX_360_4.SUDSTXT" OrderNumber="26" Mandatory="Yes" /><ItemRef ItemOID="IT.SU_HABITS_SMOKING_1_PIPEHX_360_4.SUDOSU" OrderNumber="27" Mandatory="Yes" /><ItemRef ItemOID="IT.SU_HABITS_SMOKING_1_PIPEHX_360_4.SUSTDAT" OrderNumber="28" Mandatory="Yes" /><ItemRef ItemOID="IT.SU_HABITS_SMOKING_1_PIPEHX_360_4.SUPRIOR" OrderNumber="29" Mandatory="No" /><ItemRef ItemOID="IT.SU_HABITS_SMOKING_1_PIPEHX_360_4.SUENDAT" OrderNumber="30" Mandatory="No" /><ItemRef ItemOID="IT.SU_HABITS_SMOKING_1_PIPEHX_360_4.SUONGO" OrderNumber="31" Mandatory="No" /><Alias Context="formSectionAnnotation" Name="SUCAT = TOBACCO" /></ItemGroupDef><ItemGroupDef OID="IG.SU_HABITS_ALCOHOL_2" Name="HABITS : ALCOHOL" Repeating="No"><ItemRef ItemOID="IT.SU_HABITS_ALCOHOL_2_SU_360_1.SUYN" OrderNumber="1" Mandatory="Yes" /><ItemRef ItemOID="IT.SU_HABITS_ALCOHOL_2_BEERHX_360_2.SUTRT" OrderNumber="3" Mandatory="Yes" /><ItemRef ItemOID="IT.SU_HABITS_ALCOHOL_2_BEERHX_360_2.SUOCCUR" OrderNumber="5" Mandatory="Yes" /><ItemRef ItemOID="IT.SU_HABITS_ALCOHOL_2_BEERHX_360_2.SUDSTXT" OrderNumber="6" Mandatory="Yes" /><ItemRef ItemOID="IT.SU_HABITS_ALCOHOL_2_BEERHX_360_2.SUDOSU" OrderNumber="7" Mandatory="Yes" /><ItemRef ItemOID="IT.SU_HABITS_ALCOHOL_2_DISTILLEDSPIRITSHX_360_3.SUTRT" OrderNumber="9" Mandatory="Yes" /><ItemRef ItemOID="IT.SU_HABITS_ALCOHOL_2_DISTILLEDSPIRITSHX_360_3.SUOCCUR" OrderNumber="11" Mandatory="Yes" /><ItemRef ItemOID="IT.SU_HABITS_ALCOHOL_2_DISTILLEDSPIRITSHX_360_3.SUDSTXT" OrderNumber="12" Mandatory="Yes" /><ItemRef ItemOID="IT.SU_HABITS_ALCOHOL_2_DISTILLEDSPIRITSHX_360_3.SUDOSU" OrderNumber="13" Mandatory="Yes" /><ItemRef ItemOID="IT.SU_HABITS_ALCOHOL_2_WINEHX_360_4.SUTRT" OrderNumber="15" Mandatory="Yes" /><ItemRef ItemOID="IT.SU_HABITS_ALCOHOL_2_WINEHX_360_4.SUOCCUR" OrderNumber="17" Mandatory="Yes" /><ItemRef ItemOID="IT.SU_HABITS_ALCOHOL_2_WINEHX_360_4.SUDSTXT" OrderNumber="18" Mandatory="Yes" /><ItemRef ItemOID="IT.SU_HABITS_ALCOHOL_2_WINEHX_360_4.SUDOSU" OrderNumber="19" Mandatory="Yes" /><Alias Context="formSectionAnnotation" Name="SUCAT = ALCOHOL" /></ItemGroupDef><ItemGroupDef OID="IG.SU_HABITS_CAFFEINE_3" Name="HABITS : CAFFEINE" Repeating="No"><ItemRef ItemOID="IT.SU_HABITS_CAFFEINE_3_SU_360_1.SUYN" OrderNumber="1" Mandatory="Yes" /><ItemRef ItemOID="IT.SU_HABITS_CAFFEINE_3_COFFEEHX_360_2.SUTRT" OrderNumber="3" Mandatory="Yes" /><ItemRef ItemOID="IT.SU_HABITS_CAFFEINE_3_COFFEEHX_360_2.SUOCCUR" OrderNumber="5" Mandatory="Yes" /><ItemRef ItemOID="IT.SU_HABITS_CAFFEINE_3_COFFEEHX_360_2.SUDSTXT" OrderNumber="6" Mandatory="Yes" /><ItemRef ItemOID="IT.SU_HABITS_CAFFEINE_3_COFFEEHX_360_2.SUDOSU" OrderNumber="7" Mandatory="Yes" /><ItemRef ItemOID="IT.SU_HABITS_CAFFEINE_3_TEAHIX_360_3.SUTRT" OrderNumber="9" Mandatory="Yes" /><ItemRef ItemOID="IT.SU_HABITS_CAFFEINE_3_TEAHIX_360_3.SUOCCUR" OrderNumber="11" Mandatory="Yes" /><ItemRef ItemOID="IT.SU_HABITS_CAFFEINE_3_TEAHIX_360_3.SUDSTXT" OrderNumber="12" Mandatory="Yes" /><ItemRef ItemOID="IT.SU_HABITS_CAFFEINE_3_TEAHIX_360_3.SUDOSU" OrderNumber="13" Mandatory="Yes" /><ItemRef ItemOID="IT.SU_HABITS_CAFFEINE_3_COLAHX_360_4.SUTRT" OrderNumber="15" Mandatory="Yes" /><ItemRef ItemOID="IT.SU_HABITS_CAFFEINE_3_COLAHX_360_4.SUOCCUR" OrderNumber="17" Mandatory="Yes" /><ItemRef ItemOID="IT.SU_HABITS_CAFFEINE_3_COLAHX_360_4.SUDSTXT" OrderNumber="18" Mandatory="Yes" /><ItemRef ItemOID="IT.SU_HABITS_CAFFEINE_3_COLAHX_360_4.SUDOSU" OrderNumber="19" Mandatory="Yes" /><Alias Context="formSectionAnnotation" Name="SUCAT = CAFFEINE" /></ItemGroupDef><ItemDef OID="IT.SU_HABITS_SMOKING_1_SU_360_1.SUYN" Name="SUYN" DataType="text" Length="1"><Description><TranslatedText xml:lang="en">SUYN</TranslatedText></Description><Question><TranslatedText xml:lang="en">Information Not Obtained</TranslatedText></Question><CodeListRef CodeListOID="CL.SU_HABITS_SMOKING_SU_360_1.SUYN.C66742" /><Alias Context="SDTM" Name="[NOT SUBMITTED]" /></ItemDef><ItemDef OID="IT.SU_HABITS_SMOKING_1_CIGARETTEHX_360_2.SUTRT" Name="SUTRT" DataType="text" Length="200"><Description><TranslatedText xml:lang="en">SUTRT</TranslatedText></Description><Alias Context="prompt" Name="Substance Used" /><Alias Context="SDTM" Name="SUTRT = CIGARETTE" /></ItemDef><ItemDef OID="IT.SU_HABITS_SMOKING_1_CIGARETTEHX_360_2.SUOCCUR" Name="SUOCCUR" DataType="text" Length="1"><Description><TranslatedText xml:lang="en">SUOCCUR</TranslatedText></Description><CodeListRef CodeListOID="CL.SU_HABITS_SMOKING_CIGARETTEHX_360_2.SUOCCUR.C66742" /><Alias Context="prompt" Name="Used" /><Alias Context="SDTM" Name="SUOCCUR" /></ItemDef><ItemDef OID="IT.SU_HABITS_SMOKING_1_CIGARETTEHX_360_2.SUDSTXT" Name="SUDSTXT" DataType="text" Length="100"><Description><TranslatedText xml:lang="en">SUDSTXT</TranslatedText></Description><Alias Context="prompt" Name="Number of cigarettes" /><Alias Context="SDTM" Name="SUDOSE;SUDOSTXT" /></ItemDef><ItemDef OID="IT.SU_HABITS_SMOKING_1_CIGARETTEHX_360_2.SUDOSU" Name="SUDOSU" DataType="text" Length="40"><Description><TranslatedText xml:lang="en">SUDOSU</TranslatedText></Description><CodeListRef CodeListOID="CL.SU_HABITS_SMOKING_CIGARETTEHX_360_2.SUDOSU.C71620" /><Alias Context="prompt" Name="Unit" /><Alias Context="SDTM" Name="SUDOSU = CIGARETTE" /></ItemDef><ItemDef OID="IT.SU_HABITS_SMOKING_1_CIGARETTEHX_360_2.SUSTDAT" Name="SUSTDAT" DataType="date" Length="10"><Description><TranslatedText xml:lang="en">SUSTDAT</TranslatedText></Description><Alias Context="prompt" Name="Start Date" /><Alias Context="SDTM" Name="SUSTDTC" /></ItemDef><ItemDef OID="IT.SU_HABITS_SMOKING_1_CIGARETTEHX_360_2.SUPRIOR" Name="SUPRIOR" DataType="text" Length="1"><Description><TranslatedText xml:lang="en">SUPRIOR</TranslatedText></Description><CodeListRef CodeListOID="CL.SU_HABITS_SMOKING_CIGARETTEHX_360_2.SUPRIOR.C66742" /><Alias Context="prompt" Name="Prior to Study" /><Alias Context="SDTM" Name="SUPRIOR" /></ItemDef><ItemDef OID="IT.SU_HABITS_SMOKING_1_CIGARETTEHX_360_2.SUENDAT" Name="SUENDAT" DataType="date" Length="10"><Description><TranslatedText xml:lang="en">SUENDAT</TranslatedText></Description><Alias Context="prompt" Name="End Date" /><Alias Context="SDTM" Name="SUENDTC" /></ItemDef><ItemDef OID="IT.SU_HABITS_SMOKING_1_CIGARETTEHX_360_2.SUONGO" Name="SUONGO" DataType="text" Length="1"><Description><TranslatedText xml:lang="en">SUONGO</TranslatedText></Description><CodeListRef CodeListOID="CL.SU_HABITS_SMOKING_CIGARETTEHX_360_2.SUONGO.C66742" /><Alias Context="prompt" Name="Ongoing" /><Alias Context="SDTM" Name="SUENRF;SUENRTPT" /></ItemDef><ItemDef OID="IT.SU_HABITS_SMOKING_1_CIGARHX_360_3.SUTRT" Name="SUTRT" DataType="text" Length="200"><Description><TranslatedText xml:lang="en">SUTRT</TranslatedText></Description><Alias Context="prompt" Name="Substance Used" /><Alias Context="SDTM" Name="SUTRT = CIGAR" /></ItemDef><ItemDef OID="IT.SU_HABITS_SMOKING_1_CIGARHX_360_3.SUOCCUR" Name="SUOCCUR" DataType="text" Length="1"><Description><TranslatedText xml:lang="en">SUOCCUR</TranslatedText></Description><CodeListRef CodeListOID="CL.SU_HABITS_SMOKING_CIGARHX_360_3.SUOCCUR.C66742" /><Alias Context="prompt" Name="Used" /><Alias Context="SDTM" Name="SUOCCUR" /></ItemDef><ItemDef OID="IT.SU_HABITS_SMOKING_1_CIGARHX_360_3.SUDSTXT" Name="SUDSTXT" DataType="text" Length="100"><Description><TranslatedText xml:lang="en">SUDSTXT</TranslatedText></Description><Alias Context="prompt" Name="Number of cigars" /><Alias Context="SDTM" Name="SUDOSE;SUDOSTXT" /></ItemDef><ItemDef OID="IT.SU_HABITS_SMOKING_1_CIGARHX_360_3.SUDOSU" Name="SUDOSU" DataType="text" Length="40"><Description><TranslatedText xml:lang="en">SUDOSU</TranslatedText></Description><CodeListRef CodeListOID="CL.SU_HABITS_SMOKING_CIGARHX_360_3.SUDOSU.C71620" /><Alias Context="prompt" Name="Unit" /><Alias Context="SDTM" Name="SUDOSU = CIGAR" /></ItemDef><ItemDef OID="IT.SU_HABITS_SMOKING_1_CIGARHX_360_3.SUSTDAT" Name="SUSTDAT" DataType="date" Length="10"><Description><TranslatedText xml:lang="en">SUSTDAT</TranslatedText></Description><Alias Context="prompt" Name="Start Date" /><Alias Context="SDTM" Name="SUSTDTC" /></ItemDef><ItemDef OID="IT.SU_HABITS_SMOKING_1_CIGARHX_360_3.SUPRIOR" Name="SUPRIOR" DataType="text" Length="1"><Description><TranslatedText xml:lang="en">SUPRIOR</TranslatedText></Description><CodeListRef CodeListOID="CL.SU_HABITS_SMOKING_CIGARHX_360_3.SUPRIOR.C66742" /><Alias Context="prompt" Name="Prior to Study" /><Alias Context="SDTM" Name="SUPRIOR" /></ItemDef><ItemDef OID="IT.SU_HABITS_SMOKING_1_CIGARHX_360_3.SUENDAT" Name="SUENDAT" DataType="date" Length="10"><Description><TranslatedText xml:lang="en">SUENDAT</TranslatedText></Description><Alias Context="prompt" Name="End Date" /><Alias Context="SDTM" Name="SUENDTC" /></ItemDef><ItemDef OID="IT.SU_HABITS_SMOKING_1_CIGARHX_360_3.SUONGO" Name="SUONGO" DataType="text" Length="1"><Description><TranslatedText xml:lang="en">SUONGO</TranslatedText></Description><CodeListRef CodeListOID="CL.SU_HABITS_SMOKING_CIGARHX_360_3.SUONGO.C66742" /><Alias Context="prompt" Name="Ongoing" /><Alias Context="SDTM" Name="SUENRF;SUENRTPT" /></ItemDef><ItemDef OID="IT.SU_HABITS_SMOKING_1_PIPEHX_360_4.SUTRT" Name="SUTRT" DataType="text" Length="200"><Description><TranslatedText xml:lang="en">SUTRT</TranslatedText></Description><Alias Context="prompt" Name="Substance Used" /><Alias Context="SDTM" Name="SUTRT = PIPE" /></ItemDef><ItemDef OID="IT.SU_HABITS_SMOKING_1_PIPEHX_360_4.SUOCCUR" Name="SUOCCUR" DataType="text" Length="1"><Description><TranslatedText xml:lang="en">SUOCCUR</TranslatedText></Description><CodeListRef CodeListOID="CL.SU_HABITS_SMOKING_PIPEHX_360_4.SUOCCUR.C66742" /><Alias Context="prompt" Name="Used" /><Alias Context="SDTM" Name="SUOCCUR" /></ItemDef><ItemDef OID="IT.SU_HABITS_SMOKING_1_PIPEHX_360_4.SUDSTXT" Name="SUDSTXT" DataType="text" Length="100"><Description><TranslatedText xml:lang="en">SUDSTXT</TranslatedText></Description><Alias Context="prompt" Name="Number of pipesful" /><Alias Context="SDTM" Name="SUDOSE;SUDOSTXT" /></ItemDef><ItemDef OID="IT.SU_HABITS_SMOKING_1_PIPEHX_360_4.SUDOSU" Name="SUDOSU" DataType="text" Length="40"><Description><TranslatedText xml:lang="en">SUDOSU</TranslatedText></Description><CodeListRef CodeListOID="CL.SU_HABITS_SMOKING_PIPEHX_360_4.SUDOSU.C71620" /><Alias Context="prompt" Name="Unit" /><Alias Context="SDTM" Name="SUDOSU = PIPE" /></ItemDef><ItemDef OID="IT.SU_HABITS_SMOKING_1_PIPEHX_360_4.SUSTDAT" Name="SUSTDAT" DataType="date" Length="10"><Description><TranslatedText xml:lang="en">SUSTDAT</TranslatedText></Description><Alias Context="prompt" Name="Start Date" /><Alias Context="SDTM" Name="SUSTDTC" /></ItemDef><ItemDef OID="IT.SU_HABITS_SMOKING_1_PIPEHX_360_4.SUPRIOR" Name="SUPRIOR" DataType="text" Length="1"><Description><TranslatedText xml:lang="en">SUPRIOR</TranslatedText></Description><CodeListRef CodeListOID="CL.SU_HABITS_SMOKING_PIPEHX_360_4.SUPRIOR.C66742" /><Alias Context="prompt" Name="Prior to Study" /><Alias Context="SDTM" Name="SUPRIOR" /></ItemDef><ItemDef OID="IT.SU_HABITS_SMOKING_1_PIPEHX_360_4.SUENDAT" Name="SUENDAT" DataType="date" Length="10"><Description><TranslatedText xml:lang="en">SUENDAT</TranslatedText></Description><Alias Context="prompt" Name="End Date" /><Alias Context="SDTM" Name="SUENDTC" /></ItemDef><ItemDef OID="IT.SU_HABITS_SMOKING_1_PIPEHX_360_4.SUONGO" Name="SUONGO" DataType="text" Length="1"><Description><TranslatedText xml:lang="en">SUONGO</TranslatedText></Description><CodeListRef CodeListOID="CL.SU_HABITS_SMOKING_PIPEHX_360_4.SUONGO.C66742" /><Alias Context="prompt" Name="Ongoing" /><Alias Context="SDTM" Name="SUENRF;SUENRTPT" /></ItemDef><ItemDef OID="IT.SU_HABITS_ALCOHOL_2_SU_360_1.SUYN" Name="SUYN" DataType="text" Length="1"><Description><TranslatedText xml:lang="en">SUYN</TranslatedText></Description><Question><TranslatedText xml:lang="en">Information Not Obtained</TranslatedText></Question><CodeListRef CodeListOID="CL.SU_HABITS_ALCOHOL_SU_360_1.SUYN.C66742" /><Alias Context="SDTM" Name="[NOT SUBMITTED]" /></ItemDef><ItemDef OID="IT.SU_HABITS_ALCOHOL_2_BEERHX_360_2.SUTRT" Name="SUTRT" DataType="text" Length="200"><Description><TranslatedText xml:lang="en">SUTRT</TranslatedText></Description><Alias Context="prompt" Name="Substance Used" /><Alias Context="SDTM" Name="SUTRT = BEER" /></ItemDef><ItemDef OID="IT.SU_HABITS_ALCOHOL_2_BEERHX_360_2.SUOCCUR" Name="SUOCCUR" DataType="text" Length="1"><Description><TranslatedText xml:lang="en">SUOCCUR</TranslatedText></Description><CodeListRef CodeListOID="CL.SU_HABITS_ALCOHOL_BEERHX_360_2.SUOCCUR.C66742" /><Alias Context="prompt" Name="Used" /><Alias Context="SDTM" Name="SUOCCUR" /></ItemDef><ItemDef OID="IT.SU_HABITS_ALCOHOL_2_BEERHX_360_2.SUDSTXT" Name="SUDSTXT" DataType="text" Length="100"><Description><TranslatedText xml:lang="en">SUDSTXT</TranslatedText></Description><Alias Context="prompt" Name="Number of beers or wine coolers/spritzers" /><Alias Context="SDTM" Name="SUDOSE;SUDOSTXT" /></ItemDef><ItemDef OID="IT.SU_HABITS_ALCOHOL_2_BEERHX_360_2.SUDOSU" Name="SUDOSU" DataType="text" Length="40"><Description><TranslatedText xml:lang="en">SUDOSU</TranslatedText></Description><CodeListRef CodeListOID="CL.SU_HABITS_ALCOHOL_BEERHX_360_2.SUDOSU.C71620" /><Alias Context="prompt" Name="Unit" /><Alias Context="SDTM" Name="SUDOSU" /></ItemDef><ItemDef OID="IT.SU_HABITS_ALCOHOL_2_DISTILLEDSPIRITSHX_360_3.SUTRT" Name="SUTRT" DataType="text" Length="200"><Description><TranslatedText xml:lang="en">SUTRT</TranslatedText></Description><Alias Context="prompt" Name="Substance Used" /><Alias Context="SDTM" Name="SUTRT = DISTILLED SPIRITS" /></ItemDef><ItemDef OID="IT.SU_HABITS_ALCOHOL_2_DISTILLEDSPIRITSHX_360_3.SUOCCUR" Name="SUOCCUR" DataType="text" Length="1"><Description><TranslatedText xml:lang="en">SUOCCUR</TranslatedText></Description><CodeListRef CodeListOID="CL.SU_HABITS_ALCOHOL_DISTILLEDSPIRITSHX_360_3.SUOCCUR.C66742" /><Alias Context="prompt" Name="Used" /><Alias Context="SDTM" Name="SUOCCUR" /></ItemDef><ItemDef OID="IT.SU_HABITS_ALCOHOL_2_DISTILLEDSPIRITSHX_360_3.SUDSTXT" Name="SUDSTXT" DataType="text" Length="100"><Description><TranslatedText xml:lang="en">SUDSTXT</TranslatedText></Description><Alias Context="prompt" Name="Number of drinks containing distilled spirits" /><Alias Context="SDTM" Name="SUDOSE;SUDOSTXT" /></ItemDef><ItemDef OID="IT.SU_HABITS_ALCOHOL_2_DISTILLEDSPIRITSHX_360_3.SUDOSU" Name="SUDOSU" DataType="text" Length="40"><Description><TranslatedText xml:lang="en">SUDOSU</TranslatedText></Description><CodeListRef CodeListOID="CL.SU_HABITS_ALCOHOL_DISTILLEDSPIRITSHX_360_3.SUDOSU.C71620" /><Alias Context="prompt" Name="Unit" /><Alias Context="SDTM" Name="SUDOSU = DRINK" /></ItemDef><ItemDef OID="IT.SU_HABITS_ALCOHOL_2_WINEHX_360_4.SUTRT" Name="SUTRT" DataType="text" Length="200"><Description><TranslatedText xml:lang="en">SUTRT</TranslatedText></Description><Alias Context="prompt" Name="Substance Used" /><Alias Context="SDTM" Name="SUTRT = WINE" /></ItemDef><ItemDef OID="IT.SU_HABITS_ALCOHOL_2_WINEHX_360_4.SUOCCUR" Name="SUOCCUR" DataType="text" Length="1"><Description><TranslatedText xml:lang="en">SUOCCUR</TranslatedText></Description><CodeListRef CodeListOID="CL.SU_HABITS_ALCOHOL_WINEHX_360_4.SUOCCUR.C66742" /><Alias Context="prompt" Name="Used" /><Alias Context="SDTM" Name="SUOCCUR" /></ItemDef><ItemDef OID="IT.SU_HABITS_ALCOHOL_2_WINEHX_360_4.SUDSTXT" Name="SUDSTXT" DataType="text" Length="100"><Description><TranslatedText xml:lang="en">SUDSTXT</TranslatedText></Description><Alias Context="prompt" Name="Number of glasses of wine" /><Alias Context="SDTM" Name="SUDOSE;SUDOSTXT" /></ItemDef><ItemDef OID="IT.SU_HABITS_ALCOHOL_2_WINEHX_360_4.SUDOSU" Name="SUDOSU" DataType="text" Length="40"><Description><TranslatedText xml:lang="en">SUDOSU</TranslatedText></Description><CodeListRef CodeListOID="CL.SU_HABITS_ALCOHOL_WINEHX_360_4.SUDOSU.C71620" /><Alias Context="prompt" Name="Unit" /><Alias Context="SDTM" Name="SUDOSU = GLASS" /></ItemDef><ItemDef OID="IT.SU_HABITS_CAFFEINE_3_SU_360_1.SUYN" Name="SUYN" DataType="text" Length="1"><Description><TranslatedText xml:lang="en">SUYN</TranslatedText></Description><Question><TranslatedText xml:lang="en">Information Not Obtained</TranslatedText></Question><CodeListRef CodeListOID="CL.SU_HABITS_CAFFEINE_SU_360_1.SUYN.C66742" /><Alias Context="SDTM" Name="[NOT SUBMITTED]" /></ItemDef><ItemDef OID="IT.SU_HABITS_CAFFEINE_3_COFFEEHX_360_2.SUTRT" Name="SUTRT" DataType="text" Length="200"><Description><TranslatedText xml:lang="en">SUTRT</TranslatedText></Description><Alias Context="prompt" Name="Substance Used" /><Alias Context="SDTM" Name="SUTRT = COFFEE" /></ItemDef><ItemDef OID="IT.SU_HABITS_CAFFEINE_3_COFFEEHX_360_2.SUOCCUR" Name="SUOCCUR" DataType="text" Length="1"><Description><TranslatedText xml:lang="en">SUOCCUR</TranslatedText></Description><CodeListRef CodeListOID="CL.SU_HABITS_CAFFEINE_COFFEEHX_360_2.SUOCCUR.C66742" /><Alias Context="prompt" Name="Used" /><Alias Context="SDTM" Name="SUOCCUR" /></ItemDef><ItemDef OID="IT.SU_HABITS_CAFFEINE_3_COFFEEHX_360_2.SUDSTXT" Name="SUDSTXT" DataType="text" Length="100"><Description><TranslatedText xml:lang="en">SUDSTXT</TranslatedText></Description><Alias Context="prompt" Name="Number of cups of coffee" /><Alias Context="SDTM" Name="SUDOSE;SUDOSTXT" /></ItemDef><ItemDef OID="IT.SU_HABITS_CAFFEINE_3_COFFEEHX_360_2.SUDOSU" Name="SUDOSU" DataType="text" Length="40"><Description><TranslatedText xml:lang="en">SUDOSU</TranslatedText></Description><CodeListRef CodeListOID="CL.SU_HABITS_CAFFEINE_COFFEEHX_360_2.SUDOSU.C71620" /><Alias Context="prompt" Name="Unit" /><Alias Context="SDTM" Name="SUDOSU = CUP" /></ItemDef><ItemDef OID="IT.SU_HABITS_CAFFEINE_3_TEAHIX_360_3.SUTRT" Name="SUTRT" DataType="text" Length="200"><Description><TranslatedText xml:lang="en">SUTRT</TranslatedText></Description><Alias Context="prompt" Name="Substance Used" /><Alias Context="SDTM" Name="SUTRT = TEA" /></ItemDef><ItemDef OID="IT.SU_HABITS_CAFFEINE_3_TEAHIX_360_3.SUOCCUR" Name="SUOCCUR" DataType="text" Length="1"><Description><TranslatedText xml:lang="en">SUOCCUR</TranslatedText></Description><CodeListRef CodeListOID="CL.SU_HABITS_CAFFEINE_TEAHIX_360_3.SUOCCUR.C66742" /><Alias Context="prompt" Name="Used" /><Alias Context="SDTM" Name="SUOCCUR" /></ItemDef><ItemDef OID="IT.SU_HABITS_CAFFEINE_3_TEAHIX_360_3.SUDSTXT" Name="SUDSTXT" DataType="text" Length="100"><Description><TranslatedText xml:lang="en">SUDSTXT</TranslatedText></Description><Alias Context="prompt" Name="Number of cups of tea" /><Alias Context="SDTM" Name="SUDOSE;SUDOSTXT" /></ItemDef><ItemDef OID="IT.SU_HABITS_CAFFEINE_3_TEAHIX_360_3.SUDOSU" Name="SUDOSU" DataType="text" Length="40"><Description><TranslatedText xml:lang="en">SUDOSU</TranslatedText></Description><CodeListRef CodeListOID="CL.SU_HABITS_CAFFEINE_TEAHIX_360_3.SUDOSU.C71620" /><Alias Context="prompt" Name="Unit" /><Alias Context="SDTM" Name="SUDOSU = CUP" /></ItemDef><ItemDef OID="IT.SU_HABITS_CAFFEINE_3_COLAHX_360_4.SUTRT" Name="SUTRT" DataType="text" Length="200"><Description><TranslatedText xml:lang="en">SUTRT</TranslatedText></Description><Alias Context="prompt" Name="Substance Used" /><Alias Context="SDTM" Name="SUTRT = COLA" /></ItemDef><ItemDef OID="IT.SU_HABITS_CAFFEINE_3_COLAHX_360_4.SUOCCUR" Name="SUOCCUR" DataType="text" Length="1"><Description><TranslatedText xml:lang="en">SUOCCUR</TranslatedText></Description><CodeListRef CodeListOID="CL.SU_HABITS_CAFFEINE_COLAHX_360_4.SUOCCUR.C66742" /><Alias Context="prompt" Name="Used" /><Alias Context="SDTM" Name="SUOCCUR" /></ItemDef><ItemDef OID="IT.SU_HABITS_CAFFEINE_3_COLAHX_360_4.SUDSTXT" Name="SUDSTXT" DataType="text" Length="100"><Description><TranslatedText xml:lang="en">SUDSTXT</TranslatedText></Description><Alias Context="prompt" Name="Number of colas" /><Alias Context="SDTM" Name="SUDOSE;SUDOSTXT" /></ItemDef><ItemDef OID="IT.SU_HABITS_CAFFEINE_3_COLAHX_360_4.SUDOSU" Name="SUDOSU" DataType="text" Length="40"><Description><TranslatedText xml:lang="en">SUDOSU</TranslatedText></Description><CodeListRef CodeListOID="CL.SU_HABITS_CAFFEINE_COLAHX_360_4.SUDOSU.C71620" /><Alias Context="prompt" Name="Unit" /><Alias Context="SDTM" Name="SUDOSU = DRINK" /></ItemDef><CodeList OID="CL.SU_HABITS_SMOKING_SU_360_1.SUYN.C66742" Name="NY" DataType="text"><CodeListItem CodedValue="N"><Decode><TranslatedText xml:lang="en">No</TranslatedText></Decode></CodeListItem><CodeListItem CodedValue="Y"><Decode><TranslatedText xml:lang="en">Yes</TranslatedText></Decode></CodeListItem></CodeList><CodeList OID="CL.SU_HABITS_SMOKING_CIGARETTEHX_360_2.SUPRESP.C66742" Name="NY" DataType="text"><EnumeratedItem CodedValue="Y" /></CodeList><CodeList OID="CL.SU_HABITS_SMOKING_CIGARETTEHX_360_2.SUOCCUR.C66742" Name="NY" DataType="text"><CodeListItem CodedValue="N"><Decode><TranslatedText xml:lang="en">No</TranslatedText></Decode></CodeListItem><CodeListItem CodedValue="Y"><Decode><TranslatedText xml:lang="en">Yes</TranslatedText></Decode></CodeListItem></CodeList><CodeList OID="CL.SU_HABITS_SMOKING_CIGARETTEHX_360_2.SUDOSU.C71620" Name="UNIT" DataType="text"><EnumeratedItem CodedValue="CIGARETTE" /></CodeList><CodeList OID="CL.SU_HABITS_SMOKING_CIGARETTEHX_360_2.SUPRIOR.C66742" Name="NY" DataType="text"><CodeListItem CodedValue="N"><Decode><TranslatedText xml:lang="en">No</TranslatedText></Decode></CodeListItem><CodeListItem CodedValue="Y"><Decode><TranslatedText xml:lang="en">Yes</TranslatedText></Decode></CodeListItem></CodeList><CodeList OID="CL.SU_HABITS_SMOKING_CIGARETTEHX_360_2.SUONGO.C66742" Name="NY" DataType="text"><CodeListItem CodedValue="N"><Decode><TranslatedText xml:lang="en">No</TranslatedText></Decode></CodeListItem><CodeListItem CodedValue="Y"><Decode><TranslatedText xml:lang="en">Yes</TranslatedText></Decode></CodeListItem></CodeList><CodeList OID="CL.SU_HABITS_SMOKING_CIGARHX_360_3.SUPRESP.C66742" Name="NY" DataType="text"><EnumeratedItem CodedValue="Y" /></CodeList><CodeList OID="CL.SU_HABITS_SMOKING_CIGARHX_360_3.SUOCCUR.C66742" Name="NY" DataType="text"><CodeListItem CodedValue="N"><Decode><TranslatedText xml:lang="en">No</TranslatedText></Decode></CodeListItem><CodeListItem CodedValue="Y"><Decode><TranslatedText xml:lang="en">Yes</TranslatedText></Decode></CodeListItem></CodeList><CodeList OID="CL.SU_HABITS_SMOKING_CIGARHX_360_3.SUDOSU.C71620" Name="UNIT" DataType="text"><EnumeratedItem CodedValue="CIGAR" /></CodeList><CodeList OID="CL.SU_HABITS_SMOKING_CIGARHX_360_3.SUPRIOR.C66742" Name="NY" DataType="text"><CodeListItem CodedValue="N"><Decode><TranslatedText xml:lang="en">No</TranslatedText></Decode></CodeListItem><CodeListItem CodedValue="Y"><Decode><TranslatedText xml:lang="en">Yes</TranslatedText></Decode></CodeListItem></CodeList><CodeList OID="CL.SU_HABITS_SMOKING_CIGARHX_360_3.SUONGO.C66742" Name="NY" DataType="text"><CodeListItem CodedValue="N"><Decode><TranslatedText xml:lang="en">No</TranslatedText></Decode></CodeListItem><CodeListItem CodedValue="Y"><Decode><TranslatedText xml:lang="en">Yes</TranslatedText></Decode></CodeListItem></CodeList><CodeList OID="CL.SU_HABITS_SMOKING_PIPEHX_360_4.SUPRESP.C66742" Name="NY" DataType="text"><EnumeratedItem CodedValue="Y" /></CodeList><CodeList OID="CL.SU_HABITS_SMOKING_PIPEHX_360_4.SUOCCUR.C66742" Name="NY" DataType="text"><CodeListItem CodedValue="N"><Decode><TranslatedText xml:lang="en">No</TranslatedText></Decode></CodeListItem><CodeListItem CodedValue="Y"><Decode><TranslatedText xml:lang="en">Yes</TranslatedText></Decode></CodeListItem></CodeList><CodeList OID="CL.SU_HABITS_SMOKING_PIPEHX_360_4.SUDOSU.C71620" Name="UNIT" DataType="text"><EnumeratedItem CodedValue="PIPE" /></CodeList><CodeList OID="CL.SU_HABITS_SMOKING_PIPEHX_360_4.SUPRIOR.C66742" Name="NY" DataType="text"><CodeListItem CodedValue="N"><Decode><TranslatedText xml:lang="en">No</TranslatedText></Decode></CodeListItem><CodeListItem CodedValue="Y"><Decode><TranslatedText xml:lang="en">Yes</TranslatedText></Decode></CodeListItem></CodeList><CodeList OID="CL.SU_HABITS_SMOKING_PIPEHX_360_4.SUONGO.C66742" Name="NY" DataType="text"><CodeListItem CodedValue="N"><Decode><TranslatedText xml:lang="en">No</TranslatedText></Decode></CodeListItem><CodeListItem CodedValue="Y"><Decode><TranslatedText xml:lang="en">Yes</TranslatedText></Decode></CodeListItem></CodeList><CodeList OID="CL.SU_HABITS_ALCOHOL_SU_360_1.SUYN.C66742" Name="NY" DataType="text"><CodeListItem CodedValue="N"><Decode><TranslatedText xml:lang="en">No</TranslatedText></Decode></CodeListItem><CodeListItem CodedValue="Y"><Decode><TranslatedText xml:lang="en">Yes</TranslatedText></Decode></CodeListItem></CodeList><CodeList OID="CL.SU_HABITS_ALCOHOL_BEERHX_360_2.SUPRESP.C66742" Name="NY" DataType="text"><EnumeratedItem CodedValue="Y" /></CodeList><CodeList OID="CL.SU_HABITS_ALCOHOL_BEERHX_360_2.SUOCCUR.C66742" Name="NY" DataType="text"><CodeListItem CodedValue="N"><Decode><TranslatedText xml:lang="en">No</TranslatedText></Decode></CodeListItem><CodeListItem CodedValue="Y"><Decode><TranslatedText xml:lang="en">Yes</TranslatedText></Decode></CodeListItem></CodeList><CodeList OID="CL.SU_HABITS_ALCOHOL_BEERHX_360_2.SUDOSU.C71620" Name="UNIT" DataType="text"><CodeListItem CodedValue="GLASS"><Decode><TranslatedText xml:lang="en">Glass</TranslatedText></Decode></CodeListItem><CodeListItem CodedValue="DRINK"><Decode><TranslatedText xml:lang="en">Drink</TranslatedText></Decode></CodeListItem><CodeListItem CodedValue="mL"><Decode><TranslatedText xml:lang="en">mL</TranslatedText></Decode></CodeListItem><CodeListItem CodedValue="oz"><Decode><TranslatedText xml:lang="en">oz</TranslatedText></Decode></CodeListItem><CodeListItem CodedValue="L"><Decode><TranslatedText xml:lang="en">L</TranslatedText></Decode></CodeListItem></CodeList><CodeList OID="CL.SU_HABITS_ALCOHOL_DISTILLEDSPIRITSHX_360_3.SUPRESP.C66742" Name="NY" DataType="text"><EnumeratedItem CodedValue="Y" /></CodeList><CodeList OID="CL.SU_HABITS_ALCOHOL_DISTILLEDSPIRITSHX_360_3.SUOCCUR.C66742" Name="NY" DataType="text"><CodeListItem CodedValue="N"><Decode><TranslatedText xml:lang="en">No</TranslatedText></Decode></CodeListItem><CodeListItem CodedValue="Y"><Decode><TranslatedText xml:lang="en">Yes</TranslatedText></Decode></CodeListItem></CodeList><CodeList OID="CL.SU_HABITS_ALCOHOL_DISTILLEDSPIRITSHX_360_3.SUDOSU.C71620" Name="UNIT" DataType="text"><EnumeratedItem CodedValue="DRINK" /></CodeList><CodeList OID="CL.SU_HABITS_ALCOHOL_WINEHX_360_4.SUPRESP.C66742" Name="NY" DataType="text"><EnumeratedItem CodedValue="Y" /></CodeList><CodeList OID="CL.SU_HABITS_ALCOHOL_WINEHX_360_4.SUOCCUR.C66742" Name="NY" DataType="text"><CodeListItem CodedValue="N"><Decode><TranslatedText xml:lang="en">No</TranslatedText></Decode></CodeListItem><CodeListItem CodedValue="Y"><Decode><TranslatedText xml:lang="en">Yes</TranslatedText></Decode></CodeListItem></CodeList><CodeList OID="CL.SU_HABITS_ALCOHOL_WINEHX_360_4.SUDOSU.C71620" Name="UNIT" DataType="text"><EnumeratedItem CodedValue="GLASS" /></CodeList><CodeList OID="CL.SU_HABITS_CAFFEINE_SU_360_1.SUYN.C66742" Name="NY" DataType="text"><CodeListItem CodedValue="N"><Decode><TranslatedText xml:lang="en">No</TranslatedText></Decode></CodeListItem><CodeListItem CodedValue="Y"><Decode><TranslatedText xml:lang="en">Yes</TranslatedText></Decode></CodeListItem></CodeList><CodeList OID="CL.SU_HABITS_CAFFEINE_COFFEEHX_360_2.SUPRESP.C66742" Name="NY" DataType="text"><EnumeratedItem CodedValue="Y" /></CodeList><CodeList OID="CL.SU_HABITS_CAFFEINE_COFFEEHX_360_2.SUOCCUR.C66742" Name="NY" DataType="text"><CodeListItem CodedValue="N"><Decode><TranslatedText xml:lang="en">No</TranslatedText></Decode></CodeListItem><CodeListItem CodedValue="Y"><Decode><TranslatedText xml:lang="en">Yes</TranslatedText></Decode></CodeListItem></CodeList><CodeList OID="CL.SU_HABITS_CAFFEINE_COFFEEHX_360_2.SUDOSU.C71620" Name="UNIT" DataType="text"><EnumeratedItem CodedValue="CUP" /></CodeList><CodeList OID="CL.SU_HABITS_CAFFEINE_TEAHIX_360_3.SUPRESP.C66742" Name="NY" DataType="text"><EnumeratedItem CodedValue="Y" /></CodeList><CodeList OID="CL.SU_HABITS_CAFFEINE_TEAHIX_360_3.SUOCCUR.C66742" Name="NY" DataType="text"><CodeListItem CodedValue="N"><Decode><TranslatedText xml:lang="en">No</TranslatedText></Decode></CodeListItem><CodeListItem CodedValue="Y"><Decode><TranslatedText xml:lang="en">Yes</TranslatedText></Decode></CodeListItem></CodeList><CodeList OID="CL.SU_HABITS_CAFFEINE_TEAHIX_360_3.SUDOSU.C71620" Name="UNIT" DataType="text"><EnumeratedItem CodedValue="CUP" /></CodeList><CodeList OID="CL.SU_HABITS_CAFFEINE_COLAHX_360_4.SUPRESP.C66742" Name="NY" DataType="text"><EnumeratedItem CodedValue="Y" /></CodeList><CodeList OID="CL.SU_HABITS_CAFFEINE_COLAHX_360_4.SUOCCUR.C66742" Name="NY" DataType="text"><CodeListItem CodedValue="N"><Decode><TranslatedText xml:lang="en">No</TranslatedText></Decode></CodeListItem><CodeListItem CodedValue="Y"><Decode><TranslatedText xml:lang="en">Yes</TranslatedText></Decode></CodeListItem></CodeList><CodeList OID="CL.SU_HABITS_CAFFEINE_COLAHX_360_4.SUDOSU.C71620" Name="UNIT" DataType="text"><EnumeratedItem CodedValue="DRINK" /></CodeList></MetaDataVersion></Study></ODM>