<?xml version='1.0' encoding='utf-8'?>
<ODM FileOID="ODM.CDASH.POC" Granularity="Metadata" AsOfDateTime="2025-08-05T13:08:11.394396+00:00" CreationDateTime="2025-08-05T13:08:11.394396+00:00" ODMVersion="2.0" FileType="Snapshot" Originator="Lex Jansen" SourceSystem="odmlib" SourceSystemVersion="0.1" xmlns="http://www.cdisc.org/ns/odm/v2.0" xmlns:xs="http://www.w3.org/2001/XMLSchema-instance" xmlns:xml="http://www.w3.org/XML/1998/namespace" xmlns:xlink="http://www.w3.org/1999/xlink"><Study OID="ODM.CDASH.STUDY" StudyName="CDISC360i CDASH POC Study" ProtocolName="CDISC360i CDASH POC Study protocol"><Description><TranslatedText Type="text/plain" xml:lang="en">CDISC360i CDASH POC Study</TranslatedText></Description><MetaDataVersion OID="ODM.CDASH.STUDY.MDV" Name="CDISC360i CDASH POC Study Metadata Version"><Description><TranslatedText Type="text/plain" xml:lang="en">CDISC360i CDASH ODM 2.0 metadata version</TranslatedText></Description><ItemGroupDef OID="IG_FORM.SU_LZZT" Name="Substance Use Habits LZZT" Repeating="No" Type="Form"><Description><TranslatedText Type="text/plain" xml:lang="en">Substance Use Habits LZZT</TranslatedText></Description><ItemGroupRef ItemGroupOID="IG.SU_HABITS_SMOKING_1" OrderNumber="1" Mandatory="Yes" /><ItemGroupRef ItemGroupOID="IG.SU_HABITS_ALCOHOL_2" OrderNumber="2" Mandatory="Yes" /><ItemGroupRef ItemGroupOID="IG.SU_HABITS_CAFFEINE_3" OrderNumber="3" Mandatory="Yes" /><Alias Context="formAnnotation" Name="DOMAIN = SC" /></ItemGroupDef><ItemGroupDef OID="IG.SU_HABITS_SMOKING_1" Name="HABITS : SMOKING" Repeating="No" Type="Section"><Description><TranslatedText Type="text/plain" xml:lang="en">HABITS : SMOKING</TranslatedText></Description><ItemGroupRef ItemGroupOID="IG.SU_HABITS_SMOKING_1_SU_360_1" OrderNumber="1" Mandatory="Yes" /><ItemGroupRef ItemGroupOID="IG.SU_HABITS_SMOKING_1_CIGARETTEHX_360_2" OrderNumber="2" Mandatory="Yes" /><ItemGroupRef ItemGroupOID="IG.SU_HABITS_SMOKING_1_CIGARHX_360_3" OrderNumber="3" Mandatory="Yes" /><ItemGroupRef ItemGroupOID="IG.SU_HABITS_SMOKING_1_PIPEHX_360_4" OrderNumber="4" Mandatory="Yes" /><Alias Context="formSectionAnnotation" Name="SUCAT = TOBACCO" /></ItemGroupDef><ItemGroupDef OID="IG.SU_HABITS_ALCOHOL_2" Name="HABITS : ALCOHOL" Repeating="No" Type="Section"><Description><TranslatedText Type="text/plain" xml:lang="en">HABITS : ALCOHOL</TranslatedText></Description><ItemGroupRef ItemGroupOID="IG.SU_HABITS_ALCOHOL_2_SU_360_1" OrderNumber="1" Mandatory="Yes" /><ItemGroupRef ItemGroupOID="IG.SU_HABITS_ALCOHOL_2_BEERHX_360_2" OrderNumber="2" Mandatory="Yes" /><ItemGroupRef ItemGroupOID="IG.SU_HABITS_ALCOHOL_2_DISTILLEDSPIRITSHX_360_3" OrderNumber="3" Mandatory="Yes" /><ItemGroupRef ItemGroupOID="IG.SU_HABITS_ALCOHOL_2_WINEHX_360_4" OrderNumber="4" Mandatory="Yes" /><Alias Context="formSectionAnnotation" Name="SUCAT = ALCOHOL" /></ItemGroupDef><ItemGroupDef OID="IG.SU_HABITS_CAFFEINE_3" Name="HABITS : CAFFEINE" Repeating="No" Type="Section"><Description><TranslatedText Type="text/plain" xml:lang="en">HABITS : CAFFEINE</TranslatedText></Description><ItemGroupRef ItemGroupOID="IG.SU_HABITS_CAFFEINE_3_SU_360_1" OrderNumber="1" Mandatory="Yes" /><ItemGroupRef ItemGroupOID="IG.SU_HABITS_CAFFEINE_3_COFFEEHX_360_2" OrderNumber="2" Mandatory="Yes" /><ItemGroupRef ItemGroupOID="IG.SU_HABITS_CAFFEINE_3_TEAHIX_360_3" OrderNumber="3" Mandatory="Yes" /><ItemGroupRef ItemGroupOID="IG.SU_HABITS_CAFFEINE_3_COLAHX_360_4" OrderNumber="4" Mandatory="Yes" /><Alias Context="formSectionAnnotation" Name="SUCAT = CAFFEINE" /></ItemGroupDef><ItemGroupDef OID="IG.SU_HABITS_SMOKING_1_SU_360_1" Name="Substance Use Yes No Indicator" Repeating="No" Type="Concept"><Description><TranslatedText Type="text/plain" xml:lang="en">Substance Use Yes No Indicator</TranslatedText></Description><ItemRef ItemOID="IT.SU_HABITS_SMOKING_1_SU_360_1.SUYN" OrderNumber="1" Mandatory="Yes" /><Coding System="/mdr/bc/biomedicalconcepts/NEW_2" Code="NEW_2" SystemName="CDISC Biomedical Concept" /></ItemGroupDef><ItemGroupDef OID="IG.SU_HABITS_SMOKING_1_CIGARETTEHX_360_2" Name="Cigarette History" Repeating="No" Type="Concept"><Description><TranslatedText Type="text/plain" xml:lang="en">Cigarette History</TranslatedText></Description><ItemRef ItemOID="IT.SU_HABITS_SMOKING_1_CIGARETTEHX_360_2.SUTRT" OrderNumber="3" Mandatory="Yes" PreSpecifiedValue="CIGARETTE" /><ItemRef ItemOID="IT.SU_HABITS_SMOKING_1_CIGARETTEHX_360_2.SUOCCUR" OrderNumber="5" Mandatory="Yes" /><ItemRef ItemOID="IT.SU_HABITS_SMOKING_1_CIGARETTEHX_360_2.SUDSTXT" OrderNumber="6" Mandatory="Yes" /><ItemRef ItemOID="IT.SU_HABITS_SMOKING_1_CIGARETTEHX_360_2.SUDOSU" OrderNumber="7" Mandatory="Yes" PreSpecifiedValue="CIGARETTE" /><ItemRef ItemOID="IT.SU_HABITS_SMOKING_1_CIGARETTEHX_360_2.SUSTDAT" OrderNumber="10" Mandatory="Yes" /><ItemRef ItemOID="IT.SU_HABITS_SMOKING_1_CIGARETTEHX_360_2.SUPRIOR" OrderNumber="11" Mandatory="No" /><ItemRef ItemOID="IT.SU_HABITS_SMOKING_1_CIGARETTEHX_360_2.SUENDAT" OrderNumber="12" Mandatory="No" /><ItemRef ItemOID="IT.SU_HABITS_SMOKING_1_CIGARETTEHX_360_2.SUONGO" OrderNumber="14" Mandatory="No" /><Coding System="/mdr/bc/biomedicalconcepts/C181760" Code="C181760" SystemName="CDISC Biomedical Concept" /><Coding System="/mdr/specializations/sdtm/datasetspecializations/CIGARETTEHX" Code="CIGARETTEHX" SystemName="CDISC SDTM Dataset Specialization" /></ItemGroupDef><ItemGroupDef OID="IG.SU_HABITS_SMOKING_1_CIGARHX_360_3" Name="Cigar History" Repeating="No" Type="Concept"><Description><TranslatedText Type="text/plain" xml:lang="en">Cigar History</TranslatedText></Description><ItemRef ItemOID="IT.SU_HABITS_SMOKING_1_CIGARHX_360_3.SUTRT" OrderNumber="3" Mandatory="Yes" PreSpecifiedValue="CIGAR" /><ItemRef ItemOID="IT.SU_HABITS_SMOKING_1_CIGARHX_360_3.SUOCCUR" OrderNumber="5" Mandatory="Yes" /><ItemRef ItemOID="IT.SU_HABITS_SMOKING_1_CIGARHX_360_3.SUDSTXT" OrderNumber="6" Mandatory="Yes" /><ItemRef ItemOID="IT.SU_HABITS_SMOKING_1_CIGARHX_360_3.SUDOSU" OrderNumber="7" Mandatory="Yes" PreSpecifiedValue="CIGAR" /><ItemRef ItemOID="IT.SU_HABITS_SMOKING_1_CIGARHX_360_3.SUSTDAT" OrderNumber="10" Mandatory="Yes" /><ItemRef ItemOID="IT.SU_HABITS_SMOKING_1_CIGARHX_360_3.SUPRIOR" OrderNumber="11" Mandatory="No" /><ItemRef ItemOID="IT.SU_HABITS_SMOKING_1_CIGARHX_360_3.SUENDAT" OrderNumber="12" Mandatory="No" /><ItemRef ItemOID="IT.SU_HABITS_SMOKING_1_CIGARHX_360_3.SUONGO" OrderNumber="14" Mandatory="No" /><Coding System="/mdr/bc/biomedicalconcepts/C181760" Code="C181760" SystemName="CDISC Biomedical Concept" /><Coding System="/mdr/specializations/sdtm/datasetspecializations/CIGARHX" Code="CIGARHX" SystemName="CDISC SDTM Dataset Specialization" /></ItemGroupDef><ItemGroupDef OID="IG.SU_HABITS_SMOKING_1_PIPEHX_360_4" Name="Pipe History" Repeating="No" Type="Concept"><Description><TranslatedText Type="text/plain" xml:lang="en">Pipe History</TranslatedText></Description><ItemRef ItemOID="IT.SU_HABITS_SMOKING_1_PIPEHX_360_4.SUTRT" OrderNumber="3" Mandatory="Yes" PreSpecifiedValue="PIPE" /><ItemRef ItemOID="IT.SU_HABITS_SMOKING_1_PIPEHX_360_4.SUOCCUR" OrderNumber="5" Mandatory="Yes" /><ItemRef ItemOID="IT.SU_HABITS_SMOKING_1_PIPEHX_360_4.SUDSTXT" OrderNumber="6" Mandatory="Yes" /><ItemRef ItemOID="IT.SU_HABITS_SMOKING_1_PIPEHX_360_4.SUDOSU" OrderNumber="7" Mandatory="Yes" PreSpecifiedValue="PIPE" /><ItemRef ItemOID="IT.SU_HABITS_SMOKING_1_PIPEHX_360_4.SUSTDAT" OrderNumber="10" Mandatory="Yes" /><ItemRef ItemOID="IT.SU_HABITS_SMOKING_1_PIPEHX_360_4.SUPRIOR" OrderNumber="11" Mandatory="No" /><ItemRef ItemOID="IT.SU_HABITS_SMOKING_1_PIPEHX_360_4.SUENDAT" OrderNumber="12" Mandatory="No" /><ItemRef ItemOID="IT.SU_HABITS_SMOKING_1_PIPEHX_360_4.SUONGO" OrderNumber="14" Mandatory="No" /><Coding System="/mdr/bc/biomedicalconcepts/C181760" Code="C181760" SystemName="CDISC Biomedical Concept" /><Coding System="/mdr/specializations/sdtm/datasetspecializations/PIPEHX" Code="PIPEHX" SystemName="CDISC SDTM Dataset Specialization" /></ItemGroupDef><ItemGroupDef OID="IG.SU_HABITS_ALCOHOL_2_SU_360_1" Name="Substance Use Yes No Indicator" Repeating="No" Type="Concept"><Description><TranslatedText Type="text/plain" xml:lang="en">Substance Use Yes No Indicator</TranslatedText></Description><ItemRef ItemOID="IT.SU_HABITS_ALCOHOL_2_SU_360_1.SUYN" OrderNumber="1" Mandatory="Yes" /><Coding System="/mdr/bc/biomedicalconcepts/NEW_2" Code="NEW_2" SystemName="CDISC Biomedical Concept" /></ItemGroupDef><ItemGroupDef OID="IG.SU_HABITS_ALCOHOL_2_BEERHX_360_2" Name="Beer Use History" Repeating="No" Type="Concept"><Description><TranslatedText Type="text/plain" xml:lang="en">Beer Use History</TranslatedText></Description><ItemRef ItemOID="IT.SU_HABITS_ALCOHOL_2_BEERHX_360_2.SUTRT" OrderNumber="3" Mandatory="Yes" PreSpecifiedValue="BEER" /><ItemRef ItemOID="IT.SU_HABITS_ALCOHOL_2_BEERHX_360_2.SUOCCUR" OrderNumber="5" Mandatory="Yes" /><ItemRef ItemOID="IT.SU_HABITS_ALCOHOL_2_BEERHX_360_2.SUDSTXT" OrderNumber="6" Mandatory="Yes" /><ItemRef ItemOID="IT.SU_HABITS_ALCOHOL_2_BEERHX_360_2.SUDOSU" OrderNumber="7" Mandatory="Yes" /><Coding System="/mdr/bc/biomedicalconcepts/C81229" Code="C81229" SystemName="CDISC Biomedical Concept" /><Coding System="/mdr/specializations/sdtm/datasetspecializations/BEERHX" Code="BEERHX" SystemName="CDISC SDTM Dataset Specialization" /></ItemGroupDef><ItemGroupDef OID="IG.SU_HABITS_ALCOHOL_2_DISTILLEDSPIRITSHX_360_3" Name="Distilled Spirits Use History" Repeating="No" Type="Concept"><Description><TranslatedText Type="text/plain" xml:lang="en">Distilled Spirits Use History</TranslatedText></Description><ItemRef ItemOID="IT.SU_HABITS_ALCOHOL_2_DISTILLEDSPIRITSHX_360_3.SUTRT" OrderNumber="3" Mandatory="Yes" PreSpecifiedValue="DISTILLED SPIRITS" /><ItemRef ItemOID="IT.SU_HABITS_ALCOHOL_2_DISTILLEDSPIRITSHX_360_3.SUOCCUR" OrderNumber="5" Mandatory="Yes" /><ItemRef ItemOID="IT.SU_HABITS_ALCOHOL_2_DISTILLEDSPIRITSHX_360_3.SUDSTXT" OrderNumber="6" Mandatory="Yes" /><ItemRef ItemOID="IT.SU_HABITS_ALCOHOL_2_DISTILLEDSPIRITSHX_360_3.SUDOSU" OrderNumber="7" Mandatory="Yes" PreSpecifiedValue="DRINK" /><Coding System="/mdr/bc/biomedicalconcepts/C81229" Code="C81229" SystemName="CDISC Biomedical Concept" /><Coding System="/mdr/specializations/sdtm/datasetspecializations/DISTILLEDSPIRITSHX" Code="DISTILLEDSPIRITSHX" SystemName="CDISC SDTM Dataset Specialization" /></ItemGroupDef><ItemGroupDef OID="IG.SU_HABITS_ALCOHOL_2_WINEHX_360_4" Name="Wine Use History" Repeating="No" Type="Concept"><Description><TranslatedText Type="text/plain" xml:lang="en">Wine Use History</TranslatedText></Description><ItemRef ItemOID="IT.SU_HABITS_ALCOHOL_2_WINEHX_360_4.SUTRT" OrderNumber="3" Mandatory="Yes" PreSpecifiedValue="WINE" /><ItemRef ItemOID="IT.SU_HABITS_ALCOHOL_2_WINEHX_360_4.SUOCCUR" OrderNumber="5" Mandatory="Yes" /><ItemRef ItemOID="IT.SU_HABITS_ALCOHOL_2_WINEHX_360_4.SUDSTXT" OrderNumber="6" Mandatory="Yes" /><ItemRef ItemOID="IT.SU_HABITS_ALCOHOL_2_WINEHX_360_4.SUDOSU" OrderNumber="7" Mandatory="Yes" PreSpecifiedValue="GLASS" /><Coding System="/mdr/bc/biomedicalconcepts/C81229" Code="C81229" SystemName="CDISC Biomedical Concept" /><Coding System="/mdr/specializations/sdtm/datasetspecializations/WINEHX" Code="WINEHX" SystemName="CDISC SDTM Dataset Specialization" /></ItemGroupDef><ItemGroupDef OID="IG.SU_HABITS_CAFFEINE_3_SU_360_1" Name="Substance Use Yes No Indicator" Repeating="No" Type="Concept"><Description><TranslatedText Type="text/plain" xml:lang="en">Substance Use Yes No Indicator</TranslatedText></Description><ItemRef ItemOID="IT.SU_HABITS_CAFFEINE_3_SU_360_1.SUYN" OrderNumber="1" Mandatory="Yes" /><Coding System="/mdr/bc/biomedicalconcepts/NEW_2" Code="NEW_2" SystemName="CDISC Biomedical Concept" /></ItemGroupDef><ItemGroupDef OID="IG.SU_HABITS_CAFFEINE_3_COFFEEHX_360_2" Name="Coffee Use History" Repeating="No" Type="Concept"><Description><TranslatedText Type="text/plain" xml:lang="en">Coffee Use History</TranslatedText></Description><ItemRef ItemOID="IT.SU_HABITS_CAFFEINE_3_COFFEEHX_360_2.SUTRT" OrderNumber="3" Mandatory="Yes" PreSpecifiedValue="COFFEE" /><ItemRef ItemOID="IT.SU_HABITS_CAFFEINE_3_COFFEEHX_360_2.SUOCCUR" OrderNumber="5" Mandatory="Yes" /><ItemRef ItemOID="IT.SU_HABITS_CAFFEINE_3_COFFEEHX_360_2.SUDSTXT" OrderNumber="6" Mandatory="Yes" /><ItemRef ItemOID="IT.SU_HABITS_CAFFEINE_3_COFFEEHX_360_2.SUDOSU" OrderNumber="7" Mandatory="Yes" PreSpecifiedValue="CUP" /><Coding System="/mdr/bc/biomedicalconcepts/C201990" Code="C201990" SystemName="CDISC Biomedical Concept" /><Coding System="/mdr/specializations/sdtm/datasetspecializations/COFFEEHX" Code="COFFEEHX" SystemName="CDISC SDTM Dataset Specialization" /></ItemGroupDef><ItemGroupDef OID="IG.SU_HABITS_CAFFEINE_3_TEAHIX_360_3" Name="Tea Use History" Repeating="No" Type="Concept"><Description><TranslatedText Type="text/plain" xml:lang="en">Tea Use History</TranslatedText></Description><ItemRef ItemOID="IT.SU_HABITS_CAFFEINE_3_TEAHIX_360_3.SUTRT" OrderNumber="3" Mandatory="Yes" PreSpecifiedValue="TEA" /><ItemRef ItemOID="IT.SU_HABITS_CAFFEINE_3_TEAHIX_360_3.SUOCCUR" OrderNumber="5" Mandatory="Yes" /><ItemRef ItemOID="IT.SU_HABITS_CAFFEINE_3_TEAHIX_360_3.SUDSTXT" OrderNumber="6" Mandatory="Yes" /><ItemRef ItemOID="IT.SU_HABITS_CAFFEINE_3_TEAHIX_360_3.SUDOSU" OrderNumber="7" Mandatory="Yes" PreSpecifiedValue="CUP" /><Coding System="/mdr/bc/biomedicalconcepts/C201990" Code="C201990" SystemName="CDISC Biomedical Concept" /><Coding System="/mdr/specializations/sdtm/datasetspecializations/TEAHIX" Code="TEAHIX" SystemName="CDISC SDTM Dataset Specialization" /></ItemGroupDef><ItemGroupDef OID="IG.SU_HABITS_CAFFEINE_3_COLAHX_360_4" Name="Cola Use History" Repeating="No" Type="Concept"><Description><TranslatedText Type="text/plain" xml:lang="en">Cola Use History</TranslatedText></Description><ItemRef ItemOID="IT.SU_HABITS_CAFFEINE_3_COLAHX_360_4.SUTRT" OrderNumber="3" Mandatory="Yes" PreSpecifiedValue="COLA" /><ItemRef ItemOID="IT.SU_HABITS_CAFFEINE_3_COLAHX_360_4.SUOCCUR" OrderNumber="5" Mandatory="Yes" /><ItemRef ItemOID="IT.SU_HABITS_CAFFEINE_3_COLAHX_360_4.SUDSTXT" OrderNumber="6" Mandatory="Yes" /><ItemRef ItemOID="IT.SU_HABITS_CAFFEINE_3_COLAHX_360_4.SUDOSU" OrderNumber="7" Mandatory="Yes" PreSpecifiedValue="DRINK" /><Coding System="/mdr/bc/biomedicalconcepts/C201990" Code="C201990" SystemName="CDISC Biomedical Concept" /><Coding System="/mdr/specializations/sdtm/datasetspecializations/COLAHX" Code="COLAHX" SystemName="CDISC SDTM Dataset Specialization" /></ItemGroupDef><ItemDef OID="IT.SU_HABITS_SMOKING_1_SU_360_1.SUYN" Name="SUYN" DataType="text" Length="1"><Question><TranslatedText Type="text/plain" xml:lang="en">Information Not Obtained</TranslatedText></Question><CodeListRef CodeListOID="CL.SU_HABITS_SMOKING_SU_360_1.SUYN.C66742" /><Alias Context="SDTM" Name="[NOT SUBMITTED]" /></ItemDef><ItemDef OID="IT.SU_HABITS_SMOKING_1_CIGARETTEHX_360_2.SUTRT" Name="SUTRT" DataType="text" Length="200"><Prompt><TranslatedText Type="text/plain" xml:lang="en">Substance Used</TranslatedText></Prompt><Alias Context="SDTM" Name="SUTRT = CIGARETTE" /></ItemDef><ItemDef OID="IT.SU_HABITS_SMOKING_1_CIGARETTEHX_360_2.SUOCCUR" Name="SUOCCUR" DataType="text" Length="1"><Prompt><TranslatedText Type="text/plain" xml:lang="en">Used</TranslatedText></Prompt><CodeListRef CodeListOID="CL.SU_HABITS_SMOKING_CIGARETTEHX_360_2.SUOCCUR.C66742" /><Alias Context="SDTM" Name="SUOCCUR" /></ItemDef><ItemDef OID="IT.SU_HABITS_SMOKING_1_CIGARETTEHX_360_2.SUDSTXT" Name="SUDSTXT" DataType="text" Length="100"><Prompt><TranslatedText Type="text/plain" xml:lang="en">Number of cigarettes</TranslatedText></Prompt><Alias Context="SDTM" Name="SUDOSE;SUDOSTXT" /></ItemDef><ItemDef OID="IT.SU_HABITS_SMOKING_1_CIGARETTEHX_360_2.SUDOSU" Name="SUDOSU" DataType="text" Length="40"><Prompt><TranslatedText Type="text/plain" xml:lang="en">Unit</TranslatedText></Prompt><CodeListRef CodeListOID="CL.SU_HABITS_SMOKING_CIGARETTEHX_360_2.SUDOSU.C71620" /><Alias Context="SDTM" Name="SUDOSU = CIGARETTE" /></ItemDef><ItemDef OID="IT.SU_HABITS_SMOKING_1_CIGARETTEHX_360_2.SUSTDAT" Name="SUSTDAT" DataType="date" Length="10"><Prompt><TranslatedText Type="text/plain" xml:lang="en">Start Date</TranslatedText></Prompt><Alias Context="SDTM" Name="SUSTDTC" /></ItemDef><ItemDef OID="IT.SU_HABITS_SMOKING_1_CIGARETTEHX_360_2.SUPRIOR" Name="SUPRIOR" DataType="text" Length="1"><Prompt><TranslatedText Type="text/plain" xml:lang="en">Prior to Study</TranslatedText></Prompt><CodeListRef CodeListOID="CL.SU_HABITS_SMOKING_CIGARETTEHX_360_2.SUPRIOR.C66742" /><Alias Context="SDTM" Name="SUPRIOR" /></ItemDef><ItemDef OID="IT.SU_HABITS_SMOKING_1_CIGARETTEHX_360_2.SUENDAT" Name="SUENDAT" DataType="date" Length="10"><Prompt><TranslatedText Type="text/plain" xml:lang="en">End Date</TranslatedText></Prompt><Alias Context="SDTM" Name="SUENDTC" /></ItemDef><ItemDef OID="IT.SU_HABITS_SMOKING_1_CIGARETTEHX_360_2.SUONGO" Name="SUONGO" DataType="text" Length="1"><Prompt><TranslatedText Type="text/plain" xml:lang="en">Ongoing</TranslatedText></Prompt><CodeListRef CodeListOID="CL.SU_HABITS_SMOKING_CIGARETTEHX_360_2.SUONGO.C66742" /><Alias Context="SDTM" Name="SUENRF;SUENRTPT" /></ItemDef><ItemDef OID="IT.SU_HABITS_SMOKING_1_CIGARHX_360_3.SUTRT" Name="SUTRT" DataType="text" Length="200"><Prompt><TranslatedText Type="text/plain" xml:lang="en">Substance Used</TranslatedText></Prompt><Alias Context="SDTM" Name="SUTRT = CIGAR" /></ItemDef><ItemDef OID="IT.SU_HABITS_SMOKING_1_CIGARHX_360_3.SUOCCUR" Name="SUOCCUR" DataType="text" Length="1"><Prompt><TranslatedText Type="text/plain" xml:lang="en">Used</TranslatedText></Prompt><CodeListRef CodeListOID="CL.SU_HABITS_SMOKING_CIGARHX_360_3.SUOCCUR.C66742" /><Alias Context="SDTM" Name="SUOCCUR" /></ItemDef><ItemDef OID="IT.SU_HABITS_SMOKING_1_CIGARHX_360_3.SUDSTXT" Name="SUDSTXT" DataType="text" Length="100"><Prompt><TranslatedText Type="text/plain" xml:lang="en">Number of cigars</TranslatedText></Prompt><Alias Context="SDTM" Name="SUDOSE;SUDOSTXT" /></ItemDef><ItemDef OID="IT.SU_HABITS_SMOKING_1_CIGARHX_360_3.SUDOSU" Name="SUDOSU" DataType="text" Length="40"><Prompt><TranslatedText Type="text/plain" xml:lang="en">Unit</TranslatedText></Prompt><CodeListRef CodeListOID="CL.SU_HABITS_SMOKING_CIGARHX_360_3.SUDOSU.C71620" /><Alias Context="SDTM" Name="SUDOSU = CIGAR" /></ItemDef><ItemDef OID="IT.SU_HABITS_SMOKING_1_CIGARHX_360_3.SUSTDAT" Name="SUSTDAT" DataType="date" Length="10"><Prompt><TranslatedText Type="text/plain" xml:lang="en">Start Date</TranslatedText></Prompt><Alias Context="SDTM" Name="SUSTDTC" /></ItemDef><ItemDef OID="IT.SU_HABITS_SMOKING_1_CIGARHX_360_3.SUPRIOR" Name="SUPRIOR" DataType="text" Length="1"><Prompt><TranslatedText Type="text/plain" xml:lang="en">Prior to Study</TranslatedText></Prompt><CodeListRef CodeListOID="CL.SU_HABITS_SMOKING_CIGARHX_360_3.SUPRIOR.C66742" /><Alias Context="SDTM" Name="SUPRIOR" /></ItemDef><ItemDef OID="IT.SU_HABITS_SMOKING_1_CIGARHX_360_3.SUENDAT" Name="SUENDAT" DataType="date" Length="10"><Prompt><TranslatedText Type="text/plain" xml:lang="en">End Date</TranslatedText></Prompt><Alias Context="SDTM" Name="SUENDTC" /></ItemDef><ItemDef OID="IT.SU_HABITS_SMOKING_1_CIGARHX_360_3.SUONGO" Name="SUONGO" DataType="text" Length="1"><Prompt><TranslatedText Type="text/plain" xml:lang="en">Ongoing</TranslatedText></Prompt><CodeListRef CodeListOID="CL.SU_HABITS_SMOKING_CIGARHX_360_3.SUONGO.C66742" /><Alias Context="SDTM" Name="SUENRF;SUENRTPT" /></ItemDef><ItemDef OID="IT.SU_HABITS_SMOKING_1_PIPEHX_360_4.SUTRT" Name="SUTRT" DataType="text" Length="200"><Prompt><TranslatedText Type="text/plain" xml:lang="en">Substance Used</TranslatedText></Prompt><Alias Context="SDTM" Name="SUTRT = PIPE" /></ItemDef><ItemDef OID="IT.SU_HABITS_SMOKING_1_PIPEHX_360_4.SUOCCUR" Name="SUOCCUR" DataType="text" Length="1"><Prompt><TranslatedText Type="text/plain" xml:lang="en">Used</TranslatedText></Prompt><CodeListRef CodeListOID="CL.SU_HABITS_SMOKING_PIPEHX_360_4.SUOCCUR.C66742" /><Alias Context="SDTM" Name="SUOCCUR" /></ItemDef><ItemDef OID="IT.SU_HABITS_SMOKING_1_PIPEHX_360_4.SUDSTXT" Name="SUDSTXT" DataType="text" Length="100"><Prompt><TranslatedText Type="text/plain" xml:lang="en">Number of pipesful</TranslatedText></Prompt><Alias Context="SDTM" Name="SUDOSE;SUDOSTXT" /></ItemDef><ItemDef OID="IT.SU_HABITS_SMOKING_1_PIPEHX_360_4.SUDOSU" Name="SUDOSU" DataType="text" Length="40"><Prompt><TranslatedText Type="text/plain" xml:lang="en">Unit</TranslatedText></Prompt><CodeListRef CodeListOID="CL.SU_HABITS_SMOKING_PIPEHX_360_4.SUDOSU.C71620" /><Alias Context="SDTM" Name="SUDOSU = PIPE" /></ItemDef><ItemDef OID="IT.SU_HABITS_SMOKING_1_PIPEHX_360_4.SUSTDAT" Name="SUSTDAT" DataType="date" Length="10"><Prompt><TranslatedText Type="text/plain" xml:lang="en">Start Date</TranslatedText></Prompt><Alias Context="SDTM" Name="SUSTDTC" /></ItemDef><ItemDef OID="IT.SU_HABITS_SMOKING_1_PIPEHX_360_4.SUPRIOR" Name="SUPRIOR" DataType="text" Length="1"><Prompt><TranslatedText Type="text/plain" xml:lang="en">Prior to Study</TranslatedText></Prompt><CodeListRef CodeListOID="CL.SU_HABITS_SMOKING_PIPEHX_360_4.SUPRIOR.C66742" /><Alias Context="SDTM" Name="SUPRIOR" /></ItemDef><ItemDef OID="IT.SU_HABITS_SMOKING_1_PIPEHX_360_4.SUENDAT" Name="SUENDAT" DataType="date" Length="10"><Prompt><TranslatedText Type="text/plain" xml:lang="en">End Date</TranslatedText></Prompt><Alias Context="SDTM" Name="SUENDTC" /></ItemDef><ItemDef OID="IT.SU_HABITS_SMOKING_1_PIPEHX_360_4.SUONGO" Name="SUONGO" DataType="text" Length="1"><Prompt><TranslatedText Type="text/plain" xml:lang="en">Ongoing</TranslatedText></Prompt><CodeListRef CodeListOID="CL.SU_HABITS_SMOKING_PIPEHX_360_4.SUONGO.C66742" /><Alias Context="SDTM" Name="SUENRF;SUENRTPT" /></ItemDef><ItemDef OID="IT.SU_HABITS_ALCOHOL_2_SU_360_1.SUYN" Name="SUYN" DataType="text" Length="1"><Question><TranslatedText Type="text/plain" xml:lang="en">Information Not Obtained</TranslatedText></Question><CodeListRef CodeListOID="CL.SU_HABITS_ALCOHOL_SU_360_1.SUYN.C66742" /><Alias Context="SDTM" Name="[NOT SUBMITTED]" /></ItemDef><ItemDef OID="IT.SU_HABITS_ALCOHOL_2_BEERHX_360_2.SUTRT" Name="SUTRT" DataType="text" Length="200"><Prompt><TranslatedText Type="text/plain" xml:lang="en">Substance Used</TranslatedText></Prompt><Alias Context="SDTM" Name="SUTRT = BEER" /></ItemDef><ItemDef OID="IT.SU_HABITS_ALCOHOL_2_BEERHX_360_2.SUOCCUR" Name="SUOCCUR" DataType="text" Length="1"><Prompt><TranslatedText Type="text/plain" xml:lang="en">Used</TranslatedText></Prompt><CodeListRef CodeListOID="CL.SU_HABITS_ALCOHOL_BEERHX_360_2.SUOCCUR.C66742" /><Alias Context="SDTM" Name="SUOCCUR" /></ItemDef><ItemDef OID="IT.SU_HABITS_ALCOHOL_2_BEERHX_360_2.SUDSTXT" Name="SUDSTXT" DataType="text" Length="100"><Prompt><TranslatedText Type="text/plain" xml:lang="en">Number of beers or wine coolers/spritzers</TranslatedText></Prompt><Alias Context="SDTM" Name="SUDOSE;SUDOSTXT" /></ItemDef><ItemDef OID="IT.SU_HABITS_ALCOHOL_2_BEERHX_360_2.SUDOSU" Name="SUDOSU" DataType="text" Length="40"><Prompt><TranslatedText Type="text/plain" xml:lang="en">Unit</TranslatedText></Prompt><CodeListRef CodeListOID="CL.SU_HABITS_ALCOHOL_BEERHX_360_2.SUDOSU.C71620" /><Alias Context="SDTM" Name="SUDOSU" /></ItemDef><ItemDef OID="IT.SU_HABITS_ALCOHOL_2_DISTILLEDSPIRITSHX_360_3.SUTRT" Name="SUTRT" DataType="text" Length="200"><Prompt><TranslatedText Type="text/plain" xml:lang="en">Substance Used</TranslatedText></Prompt><Alias Context="SDTM" Name="SUTRT = DISTILLED SPIRITS" /></ItemDef><ItemDef OID="IT.SU_HABITS_ALCOHOL_2_DISTILLEDSPIRITSHX_360_3.SUOCCUR" Name="SUOCCUR" DataType="text" Length="1"><Prompt><TranslatedText Type="text/plain" xml:lang="en">Used</TranslatedText></Prompt><CodeListRef CodeListOID="CL.SU_HABITS_ALCOHOL_DISTILLEDSPIRITSHX_360_3.SUOCCUR.C66742" /><Alias Context="SDTM" Name="SUOCCUR" /></ItemDef><ItemDef OID="IT.SU_HABITS_ALCOHOL_2_DISTILLEDSPIRITSHX_360_3.SUDSTXT" Name="SUDSTXT" DataType="text" Length="100"><Prompt><TranslatedText Type="text/plain" xml:lang="en">Number of drinks containing distilled spirits</TranslatedText></Prompt><Alias Context="SDTM" Name="SUDOSE;SUDOSTXT" /></ItemDef><ItemDef OID="IT.SU_HABITS_ALCOHOL_2_DISTILLEDSPIRITSHX_360_3.SUDOSU" Name="SUDOSU" DataType="text" Length="40"><Prompt><TranslatedText Type="text/plain" xml:lang="en">Unit</TranslatedText></Prompt><CodeListRef CodeListOID="CL.SU_HABITS_ALCOHOL_DISTILLEDSPIRITSHX_360_3.SUDOSU.C71620" /><Alias Context="SDTM" Name="SUDOSU = DRINK" /></ItemDef><ItemDef OID="IT.SU_HABITS_ALCOHOL_2_WINEHX_360_4.SUTRT" Name="SUTRT" DataType="text" Length="200"><Prompt><TranslatedText Type="text/plain" xml:lang="en">Substance Used</TranslatedText></Prompt><Alias Context="SDTM" Name="SUTRT = WINE" /></ItemDef><ItemDef OID="IT.SU_HABITS_ALCOHOL_2_WINEHX_360_4.SUOCCUR" Name="SUOCCUR" DataType="text" Length="1"><Prompt><TranslatedText Type="text/plain" xml:lang="en">Used</TranslatedText></Prompt><CodeListRef CodeListOID="CL.SU_HABITS_ALCOHOL_WINEHX_360_4.SUOCCUR.C66742" /><Alias Context="SDTM" Name="SUOCCUR" /></ItemDef><ItemDef OID="IT.SU_HABITS_ALCOHOL_2_WINEHX_360_4.SUDSTXT" Name="SUDSTXT" DataType="text" Length="100"><Prompt><TranslatedText Type="text/plain" xml:lang="en">Number of glasses of wine</TranslatedText></Prompt><Alias Context="SDTM" Name="SUDOSE;SUDOSTXT" /></ItemDef><ItemDef OID="IT.SU_HABITS_ALCOHOL_2_WINEHX_360_4.SUDOSU" Name="SUDOSU" DataType="text" Length="40"><Prompt><TranslatedText Type="text/plain" xml:lang="en">Unit</TranslatedText></Prompt><CodeListRef CodeListOID="CL.SU_HABITS_ALCOHOL_WINEHX_360_4.SUDOSU.C71620" /><Alias Context="SDTM" Name="SUDOSU = GLASS" /></ItemDef><ItemDef OID="IT.SU_HABITS_CAFFEINE_3_SU_360_1.SUYN" Name="SUYN" DataType="text" Length="1"><Question><TranslatedText Type="text/plain" xml:lang="en">Information Not Obtained</TranslatedText></Question><CodeListRef CodeListOID="CL.SU_HABITS_CAFFEINE_SU_360_1.SUYN.C66742" /><Alias Context="SDTM" Name="[NOT SUBMITTED]" /></ItemDef><ItemDef OID="IT.SU_HABITS_CAFFEINE_3_COFFEEHX_360_2.SUTRT" Name="SUTRT" DataType="text" Length="200"><Prompt><TranslatedText Type="text/plain" xml:lang="en">Substance Used</TranslatedText></Prompt><Alias Context="SDTM" Name="SUTRT = COFFEE" /></ItemDef><ItemDef OID="IT.SU_HABITS_CAFFEINE_3_COFFEEHX_360_2.SUOCCUR" Name="SUOCCUR" DataType="text" Length="1"><Prompt><TranslatedText Type="text/plain" xml:lang="en">Used</TranslatedText></Prompt><CodeListRef CodeListOID="CL.SU_HABITS_CAFFEINE_COFFEEHX_360_2.SUOCCUR.C66742" /><Alias Context="SDTM" Name="SUOCCUR" /></ItemDef><ItemDef OID="IT.SU_HABITS_CAFFEINE_3_COFFEEHX_360_2.SUDSTXT" Name="SUDSTXT" DataType="text" Length="100"><Prompt><TranslatedText Type="text/plain" xml:lang="en">Number of cups of coffee</TranslatedText></Prompt><Alias Context="SDTM" Name="SUDOSE;SUDOSTXT" /></ItemDef><ItemDef OID="IT.SU_HABITS_CAFFEINE_3_COFFEEHX_360_2.SUDOSU" Name="SUDOSU" DataType="text" Length="40"><Prompt><TranslatedText Type="text/plain" xml:lang="en">Unit</TranslatedText></Prompt><CodeListRef CodeListOID="CL.SU_HABITS_CAFFEINE_COFFEEHX_360_2.SUDOSU.C71620" /><Alias Context="SDTM" Name="SUDOSU = CUP" /></ItemDef><ItemDef OID="IT.SU_HABITS_CAFFEINE_3_TEAHIX_360_3.SUTRT" Name="SUTRT" DataType="text" Length="200"><Prompt><TranslatedText Type="text/plain" xml:lang="en">Substance Used</TranslatedText></Prompt><Alias Context="SDTM" Name="SUTRT = TEA" /></ItemDef><ItemDef OID="IT.SU_HABITS_CAFFEINE_3_TEAHIX_360_3.SUOCCUR" Name="SUOCCUR" DataType="text" Length="1"><Prompt><TranslatedText Type="text/plain" xml:lang="en">Used</TranslatedText></Prompt><CodeListRef CodeListOID="CL.SU_HABITS_CAFFEINE_TEAHIX_360_3.SUOCCUR.C66742" /><Alias Context="SDTM" Name="SUOCCUR" /></ItemDef><ItemDef OID="IT.SU_HABITS_CAFFEINE_3_TEAHIX_360_3.SUDSTXT" Name="SUDSTXT" DataType="text" Length="100"><Prompt><TranslatedText Type="text/plain" xml:lang="en">Number of cups of tea</TranslatedText></Prompt><Alias Context="SDTM" Name="SUDOSE;SUDOSTXT" /></ItemDef><ItemDef OID="IT.SU_HABITS_CAFFEINE_3_TEAHIX_360_3.SUDOSU" Name="SUDOSU" DataType="text" Length="40"><Prompt><TranslatedText Type="text/plain" xml:lang="en">Unit</TranslatedText></Prompt><CodeListRef CodeListOID="CL.SU_HABITS_CAFFEINE_TEAHIX_360_3.SUDOSU.C71620" /><Alias Context="SDTM" Name="SUDOSU = CUP" /></ItemDef><ItemDef OID="IT.SU_HABITS_CAFFEINE_3_COLAHX_360_4.SUTRT" Name="SUTRT" DataType="text" Length="200"><Prompt><TranslatedText Type="text/plain" xml:lang="en">Substance Used</TranslatedText></Prompt><Alias Context="SDTM" Name="SUTRT = COLA" /></ItemDef><ItemDef OID="IT.SU_HABITS_CAFFEINE_3_COLAHX_360_4.SUOCCUR" Name="SUOCCUR" DataType="text" Length="1"><Prompt><TranslatedText Type="text/plain" xml:lang="en">Used</TranslatedText></Prompt><CodeListRef CodeListOID="CL.SU_HABITS_CAFFEINE_COLAHX_360_4.SUOCCUR.C66742" /><Alias Context="SDTM" Name="SUOCCUR" /></ItemDef><ItemDef OID="IT.SU_HABITS_CAFFEINE_3_COLAHX_360_4.SUDSTXT" Name="SUDSTXT" DataType="text" Length="100"><Prompt><TranslatedText Type="text/plain" xml:lang="en">Number of colas</TranslatedText></Prompt><Alias Context="SDTM" Name="SUDOSE;SUDOSTXT" /></ItemDef><ItemDef OID="IT.SU_HABITS_CAFFEINE_3_COLAHX_360_4.SUDOSU" Name="SUDOSU" DataType="text" Length="40"><Prompt><TranslatedText Type="text/plain" xml:lang="en">Unit</TranslatedText></Prompt><CodeListRef CodeListOID="CL.SU_HABITS_CAFFEINE_COLAHX_360_4.SUDOSU.C71620" /><Alias Context="SDTM" Name="SUDOSU = DRINK" /></ItemDef><CodeList OID="CL.SU_HABITS_SMOKING_SU_360_1.SUYN.C66742" Name="NY" DataType="text"><CodeListItem CodedValue="N"><Decode><TranslatedText Type="text/plain" xml:lang="en">No</TranslatedText></Decode></CodeListItem><CodeListItem CodedValue="Y"><Decode><TranslatedText Type="text/plain" xml:lang="en">Yes</TranslatedText></Decode></CodeListItem><Coding System="https://www.cdisc.org/standards/terminology" Code="C66742" SystemName="CDISC/NCI CT" /></CodeList><CodeList OID="CL.SU_HABITS_SMOKING_CIGARETTEHX_360_2.SUPRESP.C66742" Name="NY" DataType="text"><CodeListItem CodedValue="Y"><Coding System="https://www.cdisc.org/standards/terminology" Code="C49488" SystemName="CDISC/NCI CT" /></CodeListItem><Coding System="https://www.cdisc.org/standards/terminology" Code="C66742" SystemName="CDISC/NCI CT" /></CodeList><CodeList OID="CL.SU_HABITS_SMOKING_CIGARETTEHX_360_2.SUOCCUR.C66742" Name="NY" DataType="text"><CodeListItem CodedValue="N"><Decode><TranslatedText Type="text/plain" xml:lang="en">No</TranslatedText></Decode></CodeListItem><CodeListItem CodedValue="Y"><Decode><TranslatedText Type="text/plain" xml:lang="en">Yes</TranslatedText></Decode></CodeListItem><Coding System="https://www.cdisc.org/standards/terminology" Code="C66742" SystemName="CDISC/NCI CT" /></CodeList><CodeList OID="CL.SU_HABITS_SMOKING_CIGARETTEHX_360_2.SUDOSU.C71620" Name="UNIT" DataType="text"><CodeListItem CodedValue="CIGARETTE"><Coding System="https://www.cdisc.org/standards/terminology" Code="C116245" SystemName="CDISC/NCI CT" /></CodeListItem><Coding System="https://www.cdisc.org/standards/terminology" Code="C71620" SystemName="CDISC/NCI CT" /></CodeList><CodeList OID="CL.SU_HABITS_SMOKING_CIGARETTEHX_360_2.SUPRIOR.C66742" Name="NY" DataType="text"><CodeListItem CodedValue="N"><Decode><TranslatedText Type="text/plain" xml:lang="en">No</TranslatedText></Decode></CodeListItem><CodeListItem CodedValue="Y"><Decode><TranslatedText Type="text/plain" xml:lang="en">Yes</TranslatedText></Decode></CodeListItem><Coding System="https://www.cdisc.org/standards/terminology" Code="C66742" SystemName="CDISC/NCI CT" /></CodeList><CodeList OID="CL.SU_HABITS_SMOKING_CIGARETTEHX_360_2.SUONGO.C66742" Name="NY" DataType="text"><CodeListItem CodedValue="N"><Decode><TranslatedText Type="text/plain" xml:lang="en">No</TranslatedText></Decode></CodeListItem><CodeListItem CodedValue="Y"><Decode><TranslatedText Type="text/plain" xml:lang="en">Yes</TranslatedText></Decode></CodeListItem><Coding System="https://www.cdisc.org/standards/terminology" Code="C66742" SystemName="CDISC/NCI CT" /></CodeList><CodeList OID="CL.SU_HABITS_SMOKING_CIGARHX_360_3.SUPRESP.C66742" Name="NY" DataType="text"><CodeListItem CodedValue="Y"><Coding System="https://www.cdisc.org/standards/terminology" Code="C49488" SystemName="CDISC/NCI CT" /></CodeListItem><Coding System="https://www.cdisc.org/standards/terminology" Code="C66742" SystemName="CDISC/NCI CT" /></CodeList><CodeList OID="CL.SU_HABITS_SMOKING_CIGARHX_360_3.SUOCCUR.C66742" Name="NY" DataType="text"><CodeListItem CodedValue="N"><Decode><TranslatedText Type="text/plain" xml:lang="en">No</TranslatedText></Decode></CodeListItem><CodeListItem CodedValue="Y"><Decode><TranslatedText Type="text/plain" xml:lang="en">Yes</TranslatedText></Decode></CodeListItem><Coding System="https://www.cdisc.org/standards/terminology" Code="C66742" SystemName="CDISC/NCI CT" /></CodeList><CodeList OID="CL.SU_HABITS_SMOKING_CIGARHX_360_3.SUDOSU.C71620" Name="UNIT" DataType="text"><CodeListItem CodedValue="CIGAR"><Coding System="https://www.cdisc.org/standards/terminology" Code="C116244" SystemName="CDISC/NCI CT" /></CodeListItem><Coding System="https://www.cdisc.org/standards/terminology" Code="C71620" SystemName="CDISC/NCI CT" /></CodeList><CodeList OID="CL.SU_HABITS_SMOKING_CIGARHX_360_3.SUPRIOR.C66742" Name="NY" DataType="text"><CodeListItem CodedValue="N"><Decode><TranslatedText Type="text/plain" xml:lang="en">No</TranslatedText></Decode></CodeListItem><CodeListItem CodedValue="Y"><Decode><TranslatedText Type="text/plain" xml:lang="en">Yes</TranslatedText></Decode></CodeListItem><Coding System="https://www.cdisc.org/standards/terminology" Code="C66742" SystemName="CDISC/NCI CT" /></CodeList><CodeList OID="CL.SU_HABITS_SMOKING_CIGARHX_360_3.SUONGO.C66742" Name="NY" DataType="text"><CodeListItem CodedValue="N"><Decode><TranslatedText Type="text/plain" xml:lang="en">No</TranslatedText></Decode></CodeListItem><CodeListItem CodedValue="Y"><Decode><TranslatedText Type="text/plain" xml:lang="en">Yes</TranslatedText></Decode></CodeListItem><Coding System="https://www.cdisc.org/standards/terminology" Code="C66742" SystemName="CDISC/NCI CT" /></CodeList><CodeList OID="CL.SU_HABITS_SMOKING_PIPEHX_360_4.SUPRESP.C66742" Name="NY" DataType="text"><CodeListItem CodedValue="Y"><Coding System="https://www.cdisc.org/standards/terminology" Code="C49488" SystemName="CDISC/NCI CT" /></CodeListItem><Coding System="https://www.cdisc.org/standards/terminology" Code="C66742" SystemName="CDISC/NCI CT" /></CodeList><CodeList OID="CL.SU_HABITS_SMOKING_PIPEHX_360_4.SUOCCUR.C66742" Name="NY" DataType="text"><CodeListItem CodedValue="N"><Decode><TranslatedText Type="text/plain" xml:lang="en">No</TranslatedText></Decode></CodeListItem><CodeListItem CodedValue="Y"><Decode><TranslatedText Type="text/plain" xml:lang="en">Yes</TranslatedText></Decode></CodeListItem><Coding System="https://www.cdisc.org/standards/terminology" Code="C66742" SystemName="CDISC/NCI CT" /></CodeList><CodeList OID="CL.SU_HABITS_SMOKING_PIPEHX_360_4.SUDOSU.C71620" Name="UNIT" DataType="text"><CodeListItem CodedValue="PIPE"><Coding System="https://www.cdisc.org/standards/terminology" Code="C116246" SystemName="CDISC/NCI CT" /></CodeListItem><Coding System="https://www.cdisc.org/standards/terminology" Code="C71620" SystemName="CDISC/NCI CT" /></CodeList><CodeList OID="CL.SU_HABITS_SMOKING_PIPEHX_360_4.SUPRIOR.C66742" Name="NY" DataType="text"><CodeListItem CodedValue="N"><Decode><TranslatedText Type="text/plain" xml:lang="en">No</TranslatedText></Decode></CodeListItem><CodeListItem CodedValue="Y"><Decode><TranslatedText Type="text/plain" xml:lang="en">Yes</TranslatedText></Decode></CodeListItem><Coding System="https://www.cdisc.org/standards/terminology" Code="C66742" SystemName="CDISC/NCI CT" /></CodeList><CodeList OID="CL.SU_HABITS_SMOKING_PIPEHX_360_4.SUONGO.C66742" Name="NY" DataType="text"><CodeListItem CodedValue="N"><Decode><TranslatedText Type="text/plain" xml:lang="en">No</TranslatedText></Decode></CodeListItem><CodeListItem CodedValue="Y"><Decode><TranslatedText Type="text/plain" xml:lang="en">Yes</TranslatedText></Decode></CodeListItem><Coding System="https://www.cdisc.org/standards/terminology" Code="C66742" SystemName="CDISC/NCI CT" /></CodeList><CodeList OID="CL.SU_HABITS_ALCOHOL_SU_360_1.SUYN.C66742" Name="NY" DataType="text"><CodeListItem CodedValue="N"><Decode><TranslatedText Type="text/plain" xml:lang="en">No</TranslatedText></Decode></CodeListItem><CodeListItem CodedValue="Y"><Decode><TranslatedText Type="text/plain" xml:lang="en">Yes</TranslatedText></Decode></CodeListItem><Coding System="https://www.cdisc.org/standards/terminology" Code="C66742" SystemName="CDISC/NCI CT" /></CodeList><CodeList OID="CL.SU_HABITS_ALCOHOL_BEERHX_360_2.SUPRESP.C66742" Name="NY" DataType="text"><CodeListItem CodedValue="Y"><Coding System="https://www.cdisc.org/standards/terminology" Code="C49488" SystemName="CDISC/NCI CT" /></CodeListItem><Coding System="https://www.cdisc.org/standards/terminology" Code="C66742" SystemName="CDISC/NCI CT" /></CodeList><CodeList OID="CL.SU_HABITS_ALCOHOL_BEERHX_360_2.SUOCCUR.C66742" Name="NY" DataType="text"><CodeListItem CodedValue="N"><Decode><TranslatedText Type="text/plain" xml:lang="en">No</TranslatedText></Decode></CodeListItem><CodeListItem CodedValue="Y"><Decode><TranslatedText Type="text/plain" xml:lang="en">Yes</TranslatedText></Decode></CodeListItem><Coding System="https://www.cdisc.org/standards/terminology" Code="C66742" SystemName="CDISC/NCI CT" /></CodeList><CodeList OID="CL.SU_HABITS_ALCOHOL_BEERHX_360_2.SUDOSU.C71620" Name="UNIT" DataType="text"><CodeListItem CodedValue="GLASS"><Decode><TranslatedText Type="text/plain" xml:lang="en">Glass</TranslatedText></Decode></CodeListItem><CodeListItem CodedValue="DRINK"><Decode><TranslatedText Type="text/plain" xml:lang="en">Drink</TranslatedText></Decode></CodeListItem><CodeListItem CodedValue="mL"><Decode><TranslatedText Type="text/plain" xml:lang="en">mL</TranslatedText></Decode></CodeListItem><CodeListItem CodedValue="oz"><Decode><TranslatedText Type="text/plain" xml:lang="en">oz</TranslatedText></Decode></CodeListItem><CodeListItem CodedValue="L"><Decode><TranslatedText Type="text/plain" xml:lang="en">L</TranslatedText></Decode></CodeListItem><Coding System="https://www.cdisc.org/standards/terminology" Code="C71620" SystemName="CDISC/NCI CT" /></CodeList><CodeList OID="CL.SU_HABITS_ALCOHOL_DISTILLEDSPIRITSHX_360_3.SUPRESP.C66742" Name="NY" DataType="text"><CodeListItem CodedValue="Y"><Coding System="https://www.cdisc.org/standards/terminology" Code="C49488" SystemName="CDISC/NCI CT" /></CodeListItem><Coding System="https://www.cdisc.org/standards/terminology" Code="C66742" SystemName="CDISC/NCI CT" /></CodeList><CodeList OID="CL.SU_HABITS_ALCOHOL_DISTILLEDSPIRITSHX_360_3.SUOCCUR.C66742" Name="NY" DataType="text"><CodeListItem CodedValue="N"><Decode><TranslatedText Type="text/plain" xml:lang="en">No</TranslatedText></Decode></CodeListItem><CodeListItem CodedValue="Y"><Decode><TranslatedText Type="text/plain" xml:lang="en">Yes</TranslatedText></Decode></CodeListItem><Coding System="https://www.cdisc.org/standards/terminology" Code="C66742" SystemName="CDISC/NCI CT" /></CodeList><CodeList OID="CL.SU_HABITS_ALCOHOL_DISTILLEDSPIRITSHX_360_3.SUDOSU.C71620" Name="UNIT" DataType="text"><CodeListItem CodedValue="DRINK"><Coding System="https://www.cdisc.org/standards/terminology" Code="C161487" SystemName="CDISC/NCI CT" /></CodeListItem><Coding System="https://www.cdisc.org/standards/terminology" Code="C71620" SystemName="CDISC/NCI CT" /></CodeList><CodeList OID="CL.SU_HABITS_ALCOHOL_WINEHX_360_4.SUPRESP.C66742" Name="NY" DataType="text"><CodeListItem CodedValue="Y"><Coding System="https://www.cdisc.org/standards/terminology" Code="C49488" SystemName="CDISC/NCI CT" /></CodeListItem><Coding System="https://www.cdisc.org/standards/terminology" Code="C66742" SystemName="CDISC/NCI CT" /></CodeList><CodeList OID="CL.SU_HABITS_ALCOHOL_WINEHX_360_4.SUOCCUR.C66742" Name="NY" DataType="text"><CodeListItem CodedValue="N"><Decode><TranslatedText Type="text/plain" xml:lang="en">No</TranslatedText></Decode></CodeListItem><CodeListItem CodedValue="Y"><Decode><TranslatedText Type="text/plain" xml:lang="en">Yes</TranslatedText></Decode></CodeListItem><Coding System="https://www.cdisc.org/standards/terminology" Code="C66742" SystemName="CDISC/NCI CT" /></CodeList><CodeList OID="CL.SU_HABITS_ALCOHOL_WINEHX_360_4.SUDOSU.C71620" Name="UNIT" DataType="text"><CodeListItem CodedValue="GLASS"><Coding System="https://www.cdisc.org/standards/terminology" Code="C198391" SystemName="CDISC/NCI CT" /></CodeListItem><Coding System="https://www.cdisc.org/standards/terminology" Code="C71620" SystemName="CDISC/NCI CT" /></CodeList><CodeList OID="CL.SU_HABITS_CAFFEINE_SU_360_1.SUYN.C66742" Name="NY" DataType="text"><CodeListItem CodedValue="N"><Decode><TranslatedText Type="text/plain" xml:lang="en">No</TranslatedText></Decode></CodeListItem><CodeListItem CodedValue="Y"><Decode><TranslatedText Type="text/plain" xml:lang="en">Yes</TranslatedText></Decode></CodeListItem><Coding System="https://www.cdisc.org/standards/terminology" Code="C66742" SystemName="CDISC/NCI CT" /></CodeList><CodeList OID="CL.SU_HABITS_CAFFEINE_COFFEEHX_360_2.SUPRESP.C66742" Name="NY" DataType="text"><CodeListItem CodedValue="Y"><Coding System="https://www.cdisc.org/standards/terminology" Code="C49488" SystemName="CDISC/NCI CT" /></CodeListItem><Coding System="https://www.cdisc.org/standards/terminology" Code="C66742" SystemName="CDISC/NCI CT" /></CodeList><CodeList OID="CL.SU_HABITS_CAFFEINE_COFFEEHX_360_2.SUOCCUR.C66742" Name="NY" DataType="text"><CodeListItem CodedValue="N"><Decode><TranslatedText Type="text/plain" xml:lang="en">No</TranslatedText></Decode></CodeListItem><CodeListItem CodedValue="Y"><Decode><TranslatedText Type="text/plain" xml:lang="en">Yes</TranslatedText></Decode></CodeListItem><Coding System="https://www.cdisc.org/standards/terminology" Code="C66742" SystemName="CDISC/NCI CT" /></CodeList><CodeList OID="CL.SU_HABITS_CAFFEINE_COFFEEHX_360_2.SUDOSU.C71620" Name="UNIT" DataType="text"><CodeListItem CodedValue="CUP"><Coding System="https://www.cdisc.org/standards/terminology" Code="C54703" SystemName="CDISC/NCI CT" /></CodeListItem><Coding System="https://www.cdisc.org/standards/terminology" Code="C71620" SystemName="CDISC/NCI CT" /></CodeList><CodeList OID="CL.SU_HABITS_CAFFEINE_TEAHIX_360_3.SUPRESP.C66742" Name="NY" DataType="text"><CodeListItem CodedValue="Y"><Coding System="https://www.cdisc.org/standards/terminology" Code="C49488" SystemName="CDISC/NCI CT" /></CodeListItem><Coding System="https://www.cdisc.org/standards/terminology" Code="C66742" SystemName="CDISC/NCI CT" /></CodeList><CodeList OID="CL.SU_HABITS_CAFFEINE_TEAHIX_360_3.SUOCCUR.C66742" Name="NY" DataType="text"><CodeListItem CodedValue="N"><Decode><TranslatedText Type="text/plain" xml:lang="en">No</TranslatedText></Decode></CodeListItem><CodeListItem CodedValue="Y"><Decode><TranslatedText Type="text/plain" xml:lang="en">Yes</TranslatedText></Decode></CodeListItem><Coding System="https://www.cdisc.org/standards/terminology" Code="C66742" SystemName="CDISC/NCI CT" /></CodeList><CodeList OID="CL.SU_HABITS_CAFFEINE_TEAHIX_360_3.SUDOSU.C71620" Name="UNIT" DataType="text"><CodeListItem CodedValue="CUP"><Coding System="https://www.cdisc.org/standards/terminology" Code="C54703" SystemName="CDISC/NCI CT" /></CodeListItem><Coding System="https://www.cdisc.org/standards/terminology" Code="C71620" SystemName="CDISC/NCI CT" /></CodeList><CodeList OID="CL.SU_HABITS_CAFFEINE_COLAHX_360_4.SUPRESP.C66742" Name="NY" DataType="text"><CodeListItem CodedValue="Y"><Coding System="https://www.cdisc.org/standards/terminology" Code="C49488" SystemName="CDISC/NCI CT" /></CodeListItem><Coding System="https://www.cdisc.org/standards/terminology" Code="C66742" SystemName="CDISC/NCI CT" /></CodeList><CodeList OID="CL.SU_HABITS_CAFFEINE_COLAHX_360_4.SUOCCUR.C66742" Name="NY" DataType="text"><CodeListItem CodedValue="N"><Decode><TranslatedText Type="text/plain" xml:lang="en">No</TranslatedText></Decode></CodeListItem><CodeListItem CodedValue="Y"><Decode><TranslatedText Type="text/plain" xml:lang="en">Yes</TranslatedText></Decode></CodeListItem><Coding System="https://www.cdisc.org/standards/terminology" Code="C66742" SystemName="CDISC/NCI CT" /></CodeList><CodeList OID="CL.SU_HABITS_CAFFEINE_COLAHX_360_4.SUDOSU.C71620" Name="UNIT" DataType="text"><CodeListItem CodedValue="DRINK"><Coding System="https://www.cdisc.org/standards/terminology" Code="C161487" SystemName="CDISC/NCI CT" /></CodeListItem><Coding System="https://www.cdisc.org/standards/terminology" Code="C71620" SystemName="CDISC/NCI CT" /></CodeList></MetaDataVersion></Study></ODM>