{"FileOID": "ODM.CDASH.POC", "Granularity": "Metadata", "AsOfDateTime": "2025-08-05T13:08:11.394396+00:00", "CreationDateTime": "2025-08-05T13:08:11.394396+00:00", "ODMVersion": "2.0", "FileType": "Snapshot", "Originator": "Lex Jansen", "SourceSystem": "odmlib", "SourceSystemVersion": "0.1", "Study": [{"OID": "ODM.CDASH.STUDY", "StudyName": "CDISC360i CDASH POC Study", "Description": {"TranslatedText": [{"_content": "CDISC360i CDASH POC Study", "Type": "text/plain", "lang": "en"}]}, "ProtocolName": "CDISC360i CDASH POC Study protocol", "MetaDataVersion": [{"OID": "ODM.CDASH.STUDY.MDV", "Name": "CDISC360i CDASH POC Study Metadata Version", "Description": {"TranslatedText": [{"_content": "CDISC360i CDASH ODM 2.0 metadata version", "Type": "text/plain", "lang": "en"}]}, "ItemGroupDef": [{"OID": "IG_FORM.SU_LZZT", "Name": "Substance Use Habits LZZT", "Repeating": "No", "Type": "Form", "Description": {"TranslatedText": [{"_content": "Substance Use Habits LZZT", "Type": "text/plain", "lang": "en"}]}, "ItemGroupRef": [{"ItemGroupOID": "IG.SU_HABITS_SMOKING_1", "OrderNumber": 1, "Mandatory": "Yes"}, {"ItemGroupOID": "IG.SU_HABITS_ALCOHOL_2", "OrderNumber": 2, "Mandatory": "Yes"}, {"ItemGroupOID": "IG.SU_HABITS_CAFFEINE_3", "OrderNumber": 3, "Mandatory": "Yes"}], "Alias": [{"Context": "formAnnotation", "Name": "DOMAIN = SC"}]}, {"OID": "IG.SU_HABITS_SMOKING_1", "Name": "HABITS : SMOKING", "Repeating": "No", "Type": "Section", "Description": {"TranslatedText": [{"_content": "HABITS : SMOKING", "Type": "text/plain", "lang": "en"}]}, "ItemGroupRef": [{"ItemGroupOID": "IG.SU_HABITS_SMOKING_1_SU_360_1", "OrderNumber": 1, "Mandatory": "Yes"}, {"ItemGroupOID": "IG.SU_HABITS_SMOKING_1_CIGARETTEHX_360_2", "OrderNumber": 2, "Mandatory": "Yes"}, {"ItemGroupOID": "IG.SU_HABITS_SMOKING_1_CIGARHX_360_3", "OrderNumber": 3, "Mandatory": "Yes"}, {"ItemGroupOID": "IG.SU_HABITS_SMOKING_1_PIPEHX_360_4", "OrderNumber": 4, "Mandatory": "Yes"}], "Alias": [{"Context": "formSectionAnnotation", "Name": "SUCAT = TOBACCO"}]}, {"OID": "IG.SU_HABITS_ALCOHOL_2", "Name": "HABITS : ALCOHOL", "Repeating": "No", "Type": "Section", "Description": {"TranslatedText": [{"_content": "HABITS : ALCOHOL", "Type": "text/plain", "lang": "en"}]}, "ItemGroupRef": [{"ItemGroupOID": "IG.SU_HABITS_ALCOHOL_2_SU_360_1", "OrderNumber": 1, "Mandatory": "Yes"}, {"ItemGroupOID": "IG.SU_HABITS_ALCOHOL_2_BEERHX_360_2", "OrderNumber": 2, "Mandatory": "Yes"}, {"ItemGroupOID": "IG.SU_HABITS_ALCOHOL_2_DISTILLEDSPIRITSHX_360_3", "OrderNumber": 3, "Mandatory": "Yes"}, {"ItemGroupOID": "IG.SU_HABITS_ALCOHOL_2_WINEHX_360_4", "OrderNumber": 4, "Mandatory": "Yes"}], "Alias": [{"Context": "formSectionAnnotation", "Name": "SUCAT = ALCOHOL"}]}, {"OID": "IG.SU_HABITS_CAFFEINE_3", "Name": "HABITS : CAFFEINE", "Repeating": "No", "Type": "Section", "Description": {"TranslatedText": [{"_content": "HABITS : CAFFEINE", "Type": "text/plain", "lang": "en"}]}, "ItemGroupRef": [{"ItemGroupOID": "IG.SU_HABITS_CAFFEINE_3_SU_360_1", "OrderNumber": 1, "Mandatory": "Yes"}, {"ItemGroupOID": "IG.SU_HABITS_CAFFEINE_3_COFFEEHX_360_2", "OrderNumber": 2, "Mandatory": "Yes"}, {"ItemGroupOID": "IG.SU_HABITS_CAFFEINE_3_TEAHIX_360_3", "OrderNumber": 3, "Mandatory": "Yes"}, {"ItemGroupOID": "IG.SU_HABITS_CAFFEINE_3_COLAHX_360_4", "OrderNumber": 4, "Mandatory": "Yes"}], "Alias": [{"Context": "formSectionAnnotation", "Name": "SUCAT = CAFFEINE"}]}, {"OID": "IG.SU_HABITS_SMOKING_1_SU_360_1", "Name": "Substance Use Yes No Indicator", "Repeating": "No", "Type": "Concept", "Description": {"TranslatedText": [{"_content": "Substance Use Yes No Indicator", "Type": "text/plain", "lang": "en"}]}, "ItemRef": [{"ItemOID": "IT.SU_HABITS_SMOKING_1_SU_360_1.SUYN", "OrderNumber": 1, "Mandatory": "Yes"}], "Coding": [{"System": "/mdr/bc/biomedicalconcepts/NEW_2", "Code": "NEW_2", "SystemName": "CDISC Biomedical Concept"}]}, {"OID": "IG.SU_HABITS_SMOKING_1_CIGARETTEHX_360_2", "Name": "Cigarette History", "Repeating": "No", "Type": "Concept", "Description": {"TranslatedText": [{"_content": "Cigarette History", "Type": "text/plain", "lang": "en"}]}, "ItemRef": [{"ItemOID": "IT.SU_HABITS_SMOKING_1_CIGARETTEHX_360_2.SUTRT", "OrderNumber": 3, "Mandatory": "Yes", "PreSpecifiedValue": "CIGARETTE"}, {"ItemOID": "IT.SU_HABITS_SMOKING_1_CIGARETTEHX_360_2.SUOCCUR", "OrderNumber": 5, "Mandatory": "Yes"}, {"ItemOID": "IT.SU_HABITS_SMOKING_1_CIGARETTEHX_360_2.SUDSTXT", "OrderNumber": 6, "Mandatory": "Yes"}, {"ItemOID": "IT.SU_HABITS_SMOKING_1_CIGARETTEHX_360_2.SUDOSU", "OrderNumber": 7, "Mandatory": "Yes", "PreSpecifiedValue": "CIGARETTE"}, {"ItemOID": "IT.SU_HABITS_SMOKING_1_CIGARETTEHX_360_2.SUSTDAT", "OrderNumber": 10, "Mandatory": "Yes"}, {"ItemOID": "IT.SU_HABITS_SMOKING_1_CIGARETTEHX_360_2.SUPRIOR", "OrderNumber": 11, "Mandatory": "No"}, {"ItemOID": "IT.SU_HABITS_SMOKING_1_CIGARETTEHX_360_2.SUENDAT", "OrderNumber": 12, "Mandatory": "No"}, {"ItemOID": "IT.SU_HABITS_SMOKING_1_CIGARETTEHX_360_2.SUONGO", "OrderNumber": 14, "Mandatory": "No"}], "Coding": [{"System": "/mdr/bc/biomedicalconcepts/C181760", "Code": "C181760", "SystemName": "CDISC Biomedical Concept"}, {"System": "/mdr/specializations/sdtm/datasetspecializations/CIGARETTEHX", "Code": "CIGARETTEHX", "SystemName": "CDISC SDTM Dataset Specialization"}]}, {"OID": "IG.SU_HABITS_SMOKING_1_CIGARHX_360_3", "Name": "Cigar History", "Repeating": "No", "Type": "Concept", "Description": {"TranslatedText": [{"_content": "Cigar History", "Type": "text/plain", "lang": "en"}]}, "ItemRef": [{"ItemOID": "IT.SU_HABITS_SMOKING_1_CIGARHX_360_3.SUTRT", "OrderNumber": 3, "Mandatory": "Yes", "PreSpecifiedValue": "CIGAR"}, {"ItemOID": "IT.SU_HABITS_SMOKING_1_CIGARHX_360_3.SUOCCUR", "OrderNumber": 5, "Mandatory": "Yes"}, {"ItemOID": "IT.SU_HABITS_SMOKING_1_CIGARHX_360_3.SUDSTXT", "OrderNumber": 6, "Mandatory": "Yes"}, {"ItemOID": "IT.SU_HABITS_SMOKING_1_CIGARHX_360_3.SUDOSU", "OrderNumber": 7, "Mandatory": "Yes", "PreSpecifiedValue": "CIGAR"}, {"ItemOID": "IT.SU_HABITS_SMOKING_1_CIGARHX_360_3.SUSTDAT", "OrderNumber": 10, "Mandatory": "Yes"}, {"ItemOID": "IT.SU_HABITS_SMOKING_1_CIGARHX_360_3.SUPRIOR", "OrderNumber": 11, "Mandatory": "No"}, {"ItemOID": "IT.SU_HABITS_SMOKING_1_CIGARHX_360_3.SUENDAT", "OrderNumber": 12, "Mandatory": "No"}, {"ItemOID": "IT.SU_HABITS_SMOKING_1_CIGARHX_360_3.SUONGO", "OrderNumber": 14, "Mandatory": "No"}], "Coding": [{"System": "/mdr/bc/biomedicalconcepts/C181760", "Code": "C181760", "SystemName": "CDISC Biomedical Concept"}, {"System": "/mdr/specializations/sdtm/datasetspecializations/CIGARHX", "Code": "CIGARHX", "SystemName": "CDISC SDTM Dataset Specialization"}]}, {"OID": "IG.SU_HABITS_SMOKING_1_PIPEHX_360_4", "Name": "Pipe History", "Repeating": "No", "Type": "Concept", "Description": {"TranslatedText": [{"_content": "Pipe History", "Type": "text/plain", "lang": "en"}]}, "ItemRef": [{"ItemOID": "IT.SU_HABITS_SMOKING_1_PIPEHX_360_4.SUTRT", "OrderNumber": 3, "Mandatory": "Yes", "PreSpecifiedValue": "PIPE"}, {"ItemOID": "IT.SU_HABITS_SMOKING_1_PIPEHX_360_4.SUOCCUR", "OrderNumber": 5, "Mandatory": "Yes"}, {"ItemOID": "IT.SU_HABITS_SMOKING_1_PIPEHX_360_4.SUDSTXT", "OrderNumber": 6, "Mandatory": "Yes"}, {"ItemOID": "IT.SU_HABITS_SMOKING_1_PIPEHX_360_4.SUDOSU", "OrderNumber": 7, "Mandatory": "Yes", "PreSpecifiedValue": "PIPE"}, {"ItemOID": "IT.SU_HABITS_SMOKING_1_PIPEHX_360_4.SUSTDAT", "OrderNumber": 10, "Mandatory": "Yes"}, {"ItemOID": "IT.SU_HABITS_SMOKING_1_PIPEHX_360_4.SUPRIOR", "OrderNumber": 11, "Mandatory": "No"}, {"ItemOID": "IT.SU_HABITS_SMOKING_1_PIPEHX_360_4.SUENDAT", "OrderNumber": 12, "Mandatory": "No"}, {"ItemOID": "IT.SU_HABITS_SMOKING_1_PIPEHX_360_4.SUONGO", "OrderNumber": 14, "Mandatory": "No"}], "Coding": [{"System": "/mdr/bc/biomedicalconcepts/C181760", "Code": "C181760", "SystemName": "CDISC Biomedical Concept"}, {"System": "/mdr/specializations/sdtm/datasetspecializations/PIPEHX", "Code": "PIPEHX", "SystemName": "CDISC SDTM Dataset Specialization"}]}, {"OID": "IG.SU_HABITS_ALCOHOL_2_SU_360_1", "Name": "Substance Use Yes No Indicator", "Repeating": "No", "Type": "Concept", "Description": {"TranslatedText": [{"_content": "Substance Use Yes No Indicator", "Type": "text/plain", "lang": "en"}]}, "ItemRef": [{"ItemOID": "IT.SU_HABITS_ALCOHOL_2_SU_360_1.SUYN", "OrderNumber": 1, "Mandatory": "Yes"}], "Coding": [{"System": "/mdr/bc/biomedicalconcepts/NEW_2", "Code": "NEW_2", "SystemName": "CDISC Biomedical Concept"}]}, {"OID": "IG.SU_HABITS_ALCOHOL_2_BEERHX_360_2", "Name": "Beer Use History", "Repeating": "No", "Type": "Concept", "Description": {"TranslatedText": [{"_content": "Beer Use History", "Type": "text/plain", "lang": "en"}]}, "ItemRef": [{"ItemOID": "IT.SU_HABITS_ALCOHOL_2_BEERHX_360_2.SUTRT", "OrderNumber": 3, "Mandatory": "Yes", "PreSpecifiedValue": "BEER"}, {"ItemOID": "IT.SU_HABITS_ALCOHOL_2_BEERHX_360_2.SUOCCUR", "OrderNumber": 5, "Mandatory": "Yes"}, {"ItemOID": "IT.SU_HABITS_ALCOHOL_2_BEERHX_360_2.SUDSTXT", "OrderNumber": 6, "Mandatory": "Yes"}, {"ItemOID": "IT.SU_HABITS_ALCOHOL_2_BEERHX_360_2.SUDOSU", "OrderNumber": 7, "Mandatory": "Yes"}], "Coding": [{"System": "/mdr/bc/biomedicalconcepts/C81229", "Code": "C81229", "SystemName": "CDISC Biomedical Concept"}, {"System": "/mdr/specializations/sdtm/datasetspecializations/BEERHX", "Code": "BEERHX", "SystemName": "CDISC SDTM Dataset Specialization"}]}, {"OID": "IG.SU_HABITS_ALCOHOL_2_DISTILLEDSPIRITSHX_360_3", "Name": "Distilled Spirits Use History", "Repeating": "No", "Type": "Concept", "Description": {"TranslatedText": [{"_content": "Distilled Spirits Use History", "Type": "text/plain", "lang": "en"}]}, "ItemRef": [{"ItemOID": "IT.SU_HABITS_ALCOHOL_2_DISTILLEDSPIRITSHX_360_3.SUTRT", "OrderNumber": 3, "Mandatory": "Yes", "PreSpecifiedValue": "DISTILLED SPIRITS"}, {"ItemOID": "IT.SU_HABITS_ALCOHOL_2_DISTILLEDSPIRITSHX_360_3.SUOCCUR", "OrderNumber": 5, "Mandatory": "Yes"}, {"ItemOID": "IT.SU_HABITS_ALCOHOL_2_DISTILLEDSPIRITSHX_360_3.SUDSTXT", "OrderNumber": 6, "Mandatory": "Yes"}, {"ItemOID": "IT.SU_HABITS_ALCOHOL_2_DISTILLEDSPIRITSHX_360_3.SUDOSU", "OrderNumber": 7, "Mandatory": "Yes", "PreSpecifiedValue": "DRINK"}], "Coding": [{"System": "/mdr/bc/biomedicalconcepts/C81229", "Code": "C81229", "SystemName": "CDISC Biomedical Concept"}, {"System": "/mdr/specializations/sdtm/datasetspecializations/DISTILLEDSPIRITSHX", "Code": "DISTILLEDSPIRITSHX", "SystemName": "CDISC SDTM Dataset Specialization"}]}, {"OID": "IG.SU_HABITS_ALCOHOL_2_WINEHX_360_4", "Name": "Wine Use History", "Repeating": "No", "Type": "Concept", "Description": {"TranslatedText": [{"_content": "Wine Use History", "Type": "text/plain", "lang": "en"}]}, "ItemRef": [{"ItemOID": "IT.SU_HABITS_ALCOHOL_2_WINEHX_360_4.SUTRT", "OrderNumber": 3, "Mandatory": "Yes", "PreSpecifiedValue": "WINE"}, {"ItemOID": "IT.SU_HABITS_ALCOHOL_2_WINEHX_360_4.SUOCCUR", "OrderNumber": 5, "Mandatory": "Yes"}, {"ItemOID": "IT.SU_HABITS_ALCOHOL_2_WINEHX_360_4.SUDSTXT", "OrderNumber": 6, "Mandatory": "Yes"}, {"ItemOID": "IT.SU_HABITS_ALCOHOL_2_WINEHX_360_4.SUDOSU", "OrderNumber": 7, "Mandatory": "Yes", "PreSpecifiedValue": "GLASS"}], "Coding": [{"System": "/mdr/bc/biomedicalconcepts/C81229", "Code": "C81229", "SystemName": "CDISC Biomedical Concept"}, {"System": "/mdr/specializations/sdtm/datasetspecializations/WINEHX", "Code": "WINEHX", "SystemName": "CDISC SDTM Dataset Specialization"}]}, {"OID": "IG.SU_HABITS_CAFFEINE_3_SU_360_1", "Name": "Substance Use Yes No Indicator", "Repeating": "No", "Type": "Concept", "Description": {"TranslatedText": [{"_content": "Substance Use Yes No Indicator", "Type": "text/plain", "lang": "en"}]}, "ItemRef": [{"ItemOID": "IT.SU_HABITS_CAFFEINE_3_SU_360_1.SUYN", "OrderNumber": 1, "Mandatory": "Yes"}], "Coding": [{"System": "/mdr/bc/biomedicalconcepts/NEW_2", "Code": "NEW_2", "SystemName": "CDISC Biomedical Concept"}]}, {"OID": "IG.SU_HABITS_CAFFEINE_3_COFFEEHX_360_2", "Name": "Coffee Use History", "Repeating": "No", "Type": "Concept", "Description": {"TranslatedText": [{"_content": "Coffee Use History", "Type": "text/plain", "lang": "en"}]}, "ItemRef": [{"ItemOID": "IT.SU_HABITS_CAFFEINE_3_COFFEEHX_360_2.SUTRT", "OrderNumber": 3, "Mandatory": "Yes", "PreSpecifiedValue": "COFFEE"}, {"ItemOID": "IT.SU_HABITS_CAFFEINE_3_COFFEEHX_360_2.SUOCCUR", "OrderNumber": 5, "Mandatory": "Yes"}, {"ItemOID": "IT.SU_HABITS_CAFFEINE_3_COFFEEHX_360_2.SUDSTXT", "OrderNumber": 6, "Mandatory": "Yes"}, {"ItemOID": "IT.SU_HABITS_CAFFEINE_3_COFFEEHX_360_2.SUDOSU", "OrderNumber": 7, "Mandatory": "Yes", "PreSpecifiedValue": "CUP"}], "Coding": [{"System": "/mdr/bc/biomedicalconcepts/C201990", "Code": "C201990", "SystemName": "CDISC Biomedical Concept"}, {"System": "/mdr/specializations/sdtm/datasetspecializations/COFFEEHX", "Code": "COFFEEHX", "SystemName": "CDISC SDTM Dataset Specialization"}]}, {"OID": "IG.SU_HABITS_CAFFEINE_3_TEAHIX_360_3", "Name": "Tea Use History", "Repeating": "No", "Type": "Concept", "Description": {"TranslatedText": [{"_content": "Tea Use History", "Type": "text/plain", "lang": "en"}]}, "ItemRef": [{"ItemOID": "IT.SU_HABITS_CAFFEINE_3_TEAHIX_360_3.SUTRT", "OrderNumber": 3, "Mandatory": "Yes", "PreSpecifiedValue": "TEA"}, {"ItemOID": "IT.SU_HABITS_CAFFEINE_3_TEAHIX_360_3.SUOCCUR", "OrderNumber": 5, "Mandatory": "Yes"}, {"ItemOID": "IT.SU_HABITS_CAFFEINE_3_TEAHIX_360_3.SUDSTXT", "OrderNumber": 6, "Mandatory": "Yes"}, {"ItemOID": "IT.SU_HABITS_CAFFEINE_3_TEAHIX_360_3.SUDOSU", "OrderNumber": 7, "Mandatory": "Yes", "PreSpecifiedValue": "CUP"}], "Coding": [{"System": "/mdr/bc/biomedicalconcepts/C201990", "Code": "C201990", "SystemName": "CDISC Biomedical Concept"}, {"System": "/mdr/specializations/sdtm/datasetspecializations/TEAHIX", "Code": "TEAHIX", "SystemName": "CDISC SDTM Dataset Specialization"}]}, {"OID": "IG.SU_HABITS_CAFFEINE_3_COLAHX_360_4", "Name": "Cola Use History", "Repeating": "No", "Type": "Concept", "Description": {"TranslatedText": [{"_content": "Cola Use History", "Type": "text/plain", "lang": "en"}]}, "ItemRef": [{"ItemOID": "IT.SU_HABITS_CAFFEINE_3_COLAHX_360_4.SUTRT", "OrderNumber": 3, "Mandatory": "Yes", "PreSpecifiedValue": "COLA"}, {"ItemOID": "IT.SU_HABITS_CAFFEINE_3_COLAHX_360_4.SUOCCUR", "OrderNumber": 5, "Mandatory": "Yes"}, {"ItemOID": "IT.SU_HABITS_CAFFEINE_3_COLAHX_360_4.SUDSTXT", "OrderNumber": 6, "Mandatory": "Yes"}, {"ItemOID": "IT.SU_HABITS_CAFFEINE_3_COLAHX_360_4.SUDOSU", "OrderNumber": 7, "Mandatory": "Yes", "PreSpecifiedValue": "DRINK"}], "Coding": [{"System": "/mdr/bc/biomedicalconcepts/C201990", "Code": "C201990", "SystemName": "CDISC Biomedical Concept"}, {"System": "/mdr/specializations/sdtm/datasetspecializations/COLAHX", "Code": "COLAHX", "SystemName": "CDISC SDTM Dataset Specialization"}]}], "ItemDef": [{"OID": "IT.SU_HABITS_SMOKING_1_SU_360_1.SUYN", "Name": "SUYN", "DataType": "text", "Length": 1, "Question": {"TranslatedText": [{"_content": "Information Not Obtained", "Type": "text/plain", "lang": "en"}]}, "CodeListRef": {"CodeListOID": "CL.SU_HABITS_SMOKING_SU_360_1.SUYN.C66742"}, "Alias": [{"Context": "SDTM", "Name": "[NOT SUBMITTED]"}]}, {"OID": "IT.SU_HABITS_SMOKING_1_CIGARETTEHX_360_2.SUTRT", "Name": "SUTRT", "DataType": "text", "Length": 200, "Prompt": {"TranslatedText": [{"_content": "Substance Used", "Type": "text/plain", "lang": "en"}]}, "Alias": [{"Context": "SDTM", "Name": "SUTRT = CIGARETTE"}]}, {"OID": "IT.SU_HABITS_SMOKING_1_CIGARETTEHX_360_2.SUOCCUR", "Name": "SUOCCUR", "DataType": "text", "Length": 1, "Prompt": {"TranslatedText": [{"_content": "Used", "Type": "text/plain", "lang": "en"}]}, "CodeListRef": {"CodeListOID": "CL.SU_HABITS_SMOKING_CIGARETTEHX_360_2.SUOCCUR.C66742"}, "Alias": [{"Context": "SDTM", "Name": "SUOCCUR"}]}, {"OID": "IT.SU_HABITS_SMOKING_1_CIGARETTEHX_360_2.SUDSTXT", "Name": "SUDSTXT", "DataType": "text", "Length": 100, "Prompt": {"TranslatedText": [{"_content": "Number of cigarettes", "Type": "text/plain", "lang": "en"}]}, "Alias": [{"Context": "SDTM", "Name": "SUDOSE;SUDOSTXT"}]}, {"OID": "IT.SU_HABITS_SMOKING_1_CIGARETTEHX_360_2.SUDOSU", "Name": "SUDOSU", "DataType": "text", "Length": 40, "Prompt": {"TranslatedText": [{"_content": "Unit", "Type": "text/plain", "lang": "en"}]}, "CodeListRef": {"CodeListOID": "CL.SU_HABITS_SMOKING_CIGARETTEHX_360_2.SUDOSU.C71620"}, "Alias": [{"Context": "SDTM", "Name": "SUDOSU = CIGARETTE"}]}, {"OID": "IT.SU_HABITS_SMOKING_1_CIGARETTEHX_360_2.SUSTDAT", "Name": "SUSTDAT", "DataType": "date", "Length": 10, "Prompt": {"TranslatedText": [{"_content": "Start Date", "Type": "text/plain", "lang": "en"}]}, "Alias": [{"Context": "SDTM", "Name": "SUSTDTC"}]}, {"OID": "IT.SU_HABITS_SMOKING_1_CIGARETTEHX_360_2.SUPRIOR", "Name": "SUPRIOR", "DataType": "text", "Length": 1, "Prompt": {"TranslatedText": [{"_content": "Prior to Study", "Type": "text/plain", "lang": "en"}]}, "CodeListRef": {"CodeListOID": "CL.SU_HABITS_SMOKING_CIGARETTEHX_360_2.SUPRIOR.C66742"}, "Alias": [{"Context": "SDTM", "Name": "SUPRIOR"}]}, {"OID": "IT.SU_HABITS_SMOKING_1_CIGARETTEHX_360_2.SUENDAT", "Name": "SUENDAT", "DataType": "date", "Length": 10, "Prompt": {"TranslatedText": [{"_content": "End Date", "Type": "text/plain", "lang": "en"}]}, "Alias": [{"Context": "SDTM", "Name": "SUENDTC"}]}, {"OID": "IT.SU_HABITS_SMOKING_1_CIGARETTEHX_360_2.SUONGO", "Name": "SUONGO", "DataType": "text", "Length": 1, "Prompt": {"TranslatedText": [{"_content": "Ongoing", "Type": "text/plain", "lang": "en"}]}, "CodeListRef": {"CodeListOID": "CL.SU_HABITS_SMOKING_CIGARETTEHX_360_2.SUONGO.C66742"}, "Alias": [{"Context": "SDTM", "Name": "SUENRF;SUENRTPT"}]}, {"OID": "IT.SU_HABITS_SMOKING_1_CIGARHX_360_3.SUTRT", "Name": "SUTRT", "DataType": "text", "Length": 200, "Prompt": {"TranslatedText": [{"_content": "Substance Used", "Type": "text/plain", "lang": "en"}]}, "Alias": [{"Context": "SDTM", "Name": "SUTRT = CIGAR"}]}, {"OID": "IT.SU_HABITS_SMOKING_1_CIGARHX_360_3.SUOCCUR", "Name": "SUOCCUR", "DataType": "text", "Length": 1, "Prompt": {"TranslatedText": [{"_content": "Used", "Type": "text/plain", "lang": "en"}]}, "CodeListRef": {"CodeListOID": "CL.SU_HABITS_SMOKING_CIGARHX_360_3.SUOCCUR.C66742"}, "Alias": [{"Context": "SDTM", "Name": "SUOCCUR"}]}, {"OID": "IT.SU_HABITS_SMOKING_1_CIGARHX_360_3.SUDSTXT", "Name": "SUDSTXT", "DataType": "text", "Length": 100, "Prompt": {"TranslatedText": [{"_content": "Number of cigars", "Type": "text/plain", "lang": "en"}]}, "Alias": [{"Context": "SDTM", "Name": "SUDOSE;SUDOSTXT"}]}, {"OID": "IT.SU_HABITS_SMOKING_1_CIGARHX_360_3.SUDOSU", "Name": "SUDOSU", "DataType": "text", "Length": 40, "Prompt": {"TranslatedText": [{"_content": "Unit", "Type": "text/plain", "lang": "en"}]}, "CodeListRef": {"CodeListOID": "CL.SU_HABITS_SMOKING_CIGARHX_360_3.SUDOSU.C71620"}, "Alias": [{"Context": "SDTM", "Name": "SUDOSU = CIGAR"}]}, {"OID": "IT.SU_HABITS_SMOKING_1_CIGARHX_360_3.SUSTDAT", "Name": "SUSTDAT", "DataType": "date", "Length": 10, "Prompt": {"TranslatedText": [{"_content": "Start Date", "Type": "text/plain", "lang": "en"}]}, "Alias": [{"Context": "SDTM", "Name": "SUSTDTC"}]}, {"OID": "IT.SU_HABITS_SMOKING_1_CIGARHX_360_3.SUPRIOR", "Name": "SUPRIOR", "DataType": "text", "Length": 1, "Prompt": {"TranslatedText": [{"_content": "Prior to Study", "Type": "text/plain", "lang": "en"}]}, "CodeListRef": {"CodeListOID": "CL.SU_HABITS_SMOKING_CIGARHX_360_3.SUPRIOR.C66742"}, "Alias": [{"Context": "SDTM", "Name": "SUPRIOR"}]}, {"OID": "IT.SU_HABITS_SMOKING_1_CIGARHX_360_3.SUENDAT", "Name": "SUENDAT", "DataType": "date", "Length": 10, "Prompt": {"TranslatedText": [{"_content": "End Date", "Type": "text/plain", "lang": "en"}]}, "Alias": [{"Context": "SDTM", "Name": "SUENDTC"}]}, {"OID": "IT.SU_HABITS_SMOKING_1_CIGARHX_360_3.SUONGO", "Name": "SUONGO", "DataType": "text", "Length": 1, "Prompt": {"TranslatedText": [{"_content": "Ongoing", "Type": "text/plain", "lang": "en"}]}, "CodeListRef": {"CodeListOID": "CL.SU_HABITS_SMOKING_CIGARHX_360_3.SUONGO.C66742"}, "Alias": [{"Context": "SDTM", "Name": "SUENRF;SUENRTPT"}]}, {"OID": "IT.SU_HABITS_SMOKING_1_PIPEHX_360_4.SUTRT", "Name": "SUTRT", "DataType": "text", "Length": 200, "Prompt": {"TranslatedText": [{"_content": "Substance Used", "Type": "text/plain", "lang": "en"}]}, "Alias": [{"Context": "SDTM", "Name": "SUTRT = PIPE"}]}, {"OID": "IT.SU_HABITS_SMOKING_1_PIPEHX_360_4.SUOCCUR", "Name": "SUOCCUR", "DataType": "text", "Length": 1, "Prompt": {"TranslatedText": [{"_content": "Used", "Type": "text/plain", "lang": "en"}]}, "CodeListRef": {"CodeListOID": "CL.SU_HABITS_SMOKING_PIPEHX_360_4.SUOCCUR.C66742"}, "Alias": [{"Context": "SDTM", "Name": "SUOCCUR"}]}, {"OID": "IT.SU_HABITS_SMOKING_1_PIPEHX_360_4.SUDSTXT", "Name": "SUDSTXT", "DataType": "text", "Length": 100, "Prompt": {"TranslatedText": [{"_content": "Number of pipesful", "Type": "text/plain", "lang": "en"}]}, "Alias": [{"Context": "SDTM", "Name": "SUDOSE;SUDOSTXT"}]}, {"OID": "IT.SU_HABITS_SMOKING_1_PIPEHX_360_4.SUDOSU", "Name": "SUDOSU", "DataType": "text", "Length": 40, "Prompt": {"TranslatedText": [{"_content": "Unit", "Type": "text/plain", "lang": "en"}]}, "CodeListRef": {"CodeListOID": "CL.SU_HABITS_SMOKING_PIPEHX_360_4.SUDOSU.C71620"}, "Alias": [{"Context": "SDTM", "Name": "SUDOSU = PIPE"}]}, {"OID": "IT.SU_HABITS_SMOKING_1_PIPEHX_360_4.SUSTDAT", "Name": "SUSTDAT", "DataType": "date", "Length": 10, "Prompt": {"TranslatedText": [{"_content": "Start Date", "Type": "text/plain", "lang": "en"}]}, "Alias": [{"Context": "SDTM", "Name": "SUSTDTC"}]}, {"OID": "IT.SU_HABITS_SMOKING_1_PIPEHX_360_4.SUPRIOR", "Name": "SUPRIOR", "DataType": "text", "Length": 1, "Prompt": {"TranslatedText": [{"_content": "Prior to Study", "Type": "text/plain", "lang": "en"}]}, "CodeListRef": {"CodeListOID": "CL.SU_HABITS_SMOKING_PIPEHX_360_4.SUPRIOR.C66742"}, "Alias": [{"Context": "SDTM", "Name": "SUPRIOR"}]}, {"OID": "IT.SU_HABITS_SMOKING_1_PIPEHX_360_4.SUENDAT", "Name": "SUENDAT", "DataType": "date", "Length": 10, "Prompt": {"TranslatedText": [{"_content": "End Date", "Type": "text/plain", "lang": "en"}]}, "Alias": [{"Context": "SDTM", "Name": "SUENDTC"}]}, {"OID": "IT.SU_HABITS_SMOKING_1_PIPEHX_360_4.SUONGO", "Name": "SUONGO", "DataType": "text", "Length": 1, "Prompt": {"TranslatedText": [{"_content": "Ongoing", "Type": "text/plain", "lang": "en"}]}, "CodeListRef": {"CodeListOID": "CL.SU_HABITS_SMOKING_PIPEHX_360_4.SUONGO.C66742"}, "Alias": [{"Context": "SDTM", "Name": "SUENRF;SUENRTPT"}]}, {"OID": "IT.SU_HABITS_ALCOHOL_2_SU_360_1.SUYN", "Name": "SUYN", "DataType": "text", "Length": 1, "Question": {"TranslatedText": [{"_content": "Information Not Obtained", "Type": "text/plain", "lang": "en"}]}, "CodeListRef": {"CodeListOID": "CL.SU_HABITS_ALCOHOL_SU_360_1.SUYN.C66742"}, "Alias": [{"Context": "SDTM", "Name": "[NOT SUBMITTED]"}]}, {"OID": "IT.SU_HABITS_ALCOHOL_2_BEERHX_360_2.SUTRT", "Name": "SUTRT", "DataType": "text", "Length": 200, "Prompt": {"TranslatedText": [{"_content": "Substance Used", "Type": "text/plain", "lang": "en"}]}, "Alias": [{"Context": "SDTM", "Name": "SUTRT = BEER"}]}, {"OID": "IT.SU_HABITS_ALCOHOL_2_BEERHX_360_2.SUOCCUR", "Name": "SUOCCUR", "DataType": "text", "Length": 1, "Prompt": {"TranslatedText": [{"_content": "Used", "Type": "text/plain", "lang": "en"}]}, "CodeListRef": {"CodeListOID": "CL.SU_HABITS_ALCOHOL_BEERHX_360_2.SUOCCUR.C66742"}, "Alias": [{"Context": "SDTM", "Name": "SUOCCUR"}]}, {"OID": "IT.SU_HABITS_ALCOHOL_2_BEERHX_360_2.SUDSTXT", "Name": "SUDSTXT", "DataType": "text", "Length": 100, "Prompt": {"TranslatedText": [{"_content": "Number of beers or wine coolers/spritzers", "Type": "text/plain", "lang": "en"}]}, "Alias": [{"Context": "SDTM", "Name": "SUDOSE;SUDOSTXT"}]}, {"OID": "IT.SU_HABITS_ALCOHOL_2_BEERHX_360_2.SUDOSU", "Name": "SUDOSU", "DataType": "text", "Length": 40, "Prompt": {"TranslatedText": [{"_content": "Unit", "Type": "text/plain", "lang": "en"}]}, "CodeListRef": {"CodeListOID": "CL.SU_HABITS_ALCOHOL_BEERHX_360_2.SUDOSU.C71620"}, "Alias": [{"Context": "SDTM", "Name": "SUDOSU"}]}, {"OID": "IT.SU_HABITS_ALCOHOL_2_DISTILLEDSPIRITSHX_360_3.SUTRT", "Name": "SUTRT", "DataType": "text", "Length": 200, "Prompt": {"TranslatedText": [{"_content": "Substance Used", "Type": "text/plain", "lang": "en"}]}, "Alias": [{"Context": "SDTM", "Name": "SUTRT = DISTILLED SPIRITS"}]}, {"OID": "IT.SU_HABITS_ALCOHOL_2_DISTILLEDSPIRITSHX_360_3.SUOCCUR", "Name": "SUOCCUR", "DataType": "text", "Length": 1, "Prompt": {"TranslatedText": [{"_content": "Used", "Type": "text/plain", "lang": "en"}]}, "CodeListRef": {"CodeListOID": "CL.SU_HABITS_ALCOHOL_DISTILLEDSPIRITSHX_360_3.SUOCCUR.C66742"}, "Alias": [{"Context": "SDTM", "Name": "SUOCCUR"}]}, {"OID": "IT.SU_HABITS_ALCOHOL_2_DISTILLEDSPIRITSHX_360_3.SUDSTXT", "Name": "SUDSTXT", "DataType": "text", "Length": 100, "Prompt": {"TranslatedText": [{"_content": "Number of drinks containing distilled spirits", "Type": "text/plain", "lang": "en"}]}, "Alias": [{"Context": "SDTM", "Name": "SUDOSE;SUDOSTXT"}]}, {"OID": "IT.SU_HABITS_ALCOHOL_2_DISTILLEDSPIRITSHX_360_3.SUDOSU", "Name": "SUDOSU", "DataType": "text", "Length": 40, "Prompt": {"TranslatedText": [{"_content": "Unit", "Type": "text/plain", "lang": "en"}]}, "CodeListRef": {"CodeListOID": "CL.SU_HABITS_ALCOHOL_DISTILLEDSPIRITSHX_360_3.SUDOSU.C71620"}, "Alias": [{"Context": "SDTM", "Name": "SUDOSU = DRINK"}]}, {"OID": "IT.SU_HABITS_ALCOHOL_2_WINEHX_360_4.SUTRT", "Name": "SUTRT", "DataType": "text", "Length": 200, "Prompt": {"TranslatedText": [{"_content": "Substance Used", "Type": "text/plain", "lang": "en"}]}, "Alias": [{"Context": "SDTM", "Name": "SUTRT = WINE"}]}, {"OID": "IT.SU_HABITS_ALCOHOL_2_WINEHX_360_4.SUOCCUR", "Name": "SUOCCUR", "DataType": "text", "Length": 1, "Prompt": {"TranslatedText": [{"_content": "Used", "Type": "text/plain", "lang": "en"}]}, "CodeListRef": {"CodeListOID": "CL.SU_HABITS_ALCOHOL_WINEHX_360_4.SUOCCUR.C66742"}, "Alias": [{"Context": "SDTM", "Name": "SUOCCUR"}]}, {"OID": "IT.SU_HABITS_ALCOHOL_2_WINEHX_360_4.SUDSTXT", "Name": "SUDSTXT", "DataType": "text", "Length": 100, "Prompt": {"TranslatedText": [{"_content": "Number of glasses of wine", "Type": "text/plain", "lang": "en"}]}, "Alias": [{"Context": "SDTM", "Name": "SUDOSE;SUDOSTXT"}]}, {"OID": "IT.SU_HABITS_ALCOHOL_2_WINEHX_360_4.SUDOSU", "Name": "SUDOSU", "DataType": "text", "Length": 40, "Prompt": {"TranslatedText": [{"_content": "Unit", "Type": "text/plain", "lang": "en"}]}, "CodeListRef": {"CodeListOID": "CL.SU_HABITS_ALCOHOL_WINEHX_360_4.SUDOSU.C71620"}, "Alias": [{"Context": "SDTM", "Name": "SUDOSU = GLASS"}]}, {"OID": "IT.SU_HABITS_CAFFEINE_3_SU_360_1.SUYN", "Name": "SUYN", "DataType": "text", "Length": 1, "Question": {"TranslatedText": [{"_content": "Information Not Obtained", "Type": "text/plain", "lang": "en"}]}, "CodeListRef": {"CodeListOID": "CL.SU_HABITS_CAFFEINE_SU_360_1.SUYN.C66742"}, "Alias": [{"Context": "SDTM", "Name": "[NOT SUBMITTED]"}]}, {"OID": "IT.SU_HABITS_CAFFEINE_3_COFFEEHX_360_2.SUTRT", "Name": "SUTRT", "DataType": "text", "Length": 200, "Prompt": {"TranslatedText": [{"_content": "Substance Used", "Type": "text/plain", "lang": "en"}]}, "Alias": [{"Context": "SDTM", "Name": "SUTRT = COFFEE"}]}, {"OID": "IT.SU_HABITS_CAFFEINE_3_COFFEEHX_360_2.SUOCCUR", "Name": "SUOCCUR", "DataType": "text", "Length": 1, "Prompt": {"TranslatedText": [{"_content": "Used", "Type": "text/plain", "lang": "en"}]}, "CodeListRef": {"CodeListOID": "CL.SU_HABITS_CAFFEINE_COFFEEHX_360_2.SUOCCUR.C66742"}, "Alias": [{"Context": "SDTM", "Name": "SUOCCUR"}]}, {"OID": "IT.SU_HABITS_CAFFEINE_3_COFFEEHX_360_2.SUDSTXT", "Name": "SUDSTXT", "DataType": "text", "Length": 100, "Prompt": {"TranslatedText": [{"_content": "Number of cups of coffee", "Type": "text/plain", "lang": "en"}]}, "Alias": [{"Context": "SDTM", "Name": "SUDOSE;SUDOSTXT"}]}, {"OID": "IT.SU_HABITS_CAFFEINE_3_COFFEEHX_360_2.SUDOSU", "Name": "SUDOSU", "DataType": "text", "Length": 40, "Prompt": {"TranslatedText": [{"_content": "Unit", "Type": "text/plain", "lang": "en"}]}, "CodeListRef": {"CodeListOID": "CL.SU_HABITS_CAFFEINE_COFFEEHX_360_2.SUDOSU.C71620"}, "Alias": [{"Context": "SDTM", "Name": "SUDOSU = CUP"}]}, {"OID": "IT.SU_HABITS_CAFFEINE_3_TEAHIX_360_3.SUTRT", "Name": "SUTRT", "DataType": "text", "Length": 200, "Prompt": {"TranslatedText": [{"_content": "Substance Used", "Type": "text/plain", "lang": "en"}]}, "Alias": [{"Context": "SDTM", "Name": "SUTRT = TEA"}]}, {"OID": "IT.SU_HABITS_CAFFEINE_3_TEAHIX_360_3.SUOCCUR", "Name": "SUOCCUR", "DataType": "text", "Length": 1, "Prompt": {"TranslatedText": [{"_content": "Used", "Type": "text/plain", "lang": "en"}]}, "CodeListRef": {"CodeListOID": "CL.SU_HABITS_CAFFEINE_TEAHIX_360_3.SUOCCUR.C66742"}, "Alias": [{"Context": "SDTM", "Name": "SUOCCUR"}]}, {"OID": "IT.SU_HABITS_CAFFEINE_3_TEAHIX_360_3.SUDSTXT", "Name": "SUDSTXT", "DataType": "text", "Length": 100, "Prompt": {"TranslatedText": [{"_content": "Number of cups of tea", "Type": "text/plain", "lang": "en"}]}, "Alias": [{"Context": "SDTM", "Name": "SUDOSE;SUDOSTXT"}]}, {"OID": "IT.SU_HABITS_CAFFEINE_3_TEAHIX_360_3.SUDOSU", "Name": "SUDOSU", "DataType": "text", "Length": 40, "Prompt": {"TranslatedText": [{"_content": "Unit", "Type": "text/plain", "lang": "en"}]}, "CodeListRef": {"CodeListOID": "CL.SU_HABITS_CAFFEINE_TEAHIX_360_3.SUDOSU.C71620"}, "Alias": [{"Context": "SDTM", "Name": "SUDOSU = CUP"}]}, {"OID": "IT.SU_HABITS_CAFFEINE_3_COLAHX_360_4.SUTRT", "Name": "SUTRT", "DataType": "text", "Length": 200, "Prompt": {"TranslatedText": [{"_content": "Substance Used", "Type": "text/plain", "lang": "en"}]}, "Alias": [{"Context": "SDTM", "Name": "SUTRT = COLA"}]}, {"OID": "IT.SU_HABITS_CAFFEINE_3_COLAHX_360_4.SUOCCUR", "Name": "SUOCCUR", "DataType": "text", "Length": 1, "Prompt": {"TranslatedText": [{"_content": "Used", "Type": "text/plain", "lang": "en"}]}, "CodeListRef": {"CodeListOID": "CL.SU_HABITS_CAFFEINE_COLAHX_360_4.SUOCCUR.C66742"}, "Alias": [{"Context": "SDTM", "Name": "SUOCCUR"}]}, {"OID": "IT.SU_HABITS_CAFFEINE_3_COLAHX_360_4.SUDSTXT", "Name": "SUDSTXT", "DataType": "text", "Length": 100, "Prompt": {"TranslatedText": [{"_content": "Number of colas", "Type": "text/plain", "lang": "en"}]}, "Alias": [{"Context": "SDTM", "Name": "SUDOSE;SUDOSTXT"}]}, {"OID": "IT.SU_HABITS_CAFFEINE_3_COLAHX_360_4.SUDOSU", "Name": "SUDOSU", "DataType": "text", "Length": 40, "Prompt": {"TranslatedText": [{"_content": "Unit", "Type": "text/plain", "lang": "en"}]}, "CodeListRef": {"CodeListOID": "CL.SU_HABITS_CAFFEINE_COLAHX_360_4.SUDOSU.C71620"}, "Alias": [{"Context": "SDTM", "Name": "SUDOSU = DRINK"}]}], "CodeList": [{"OID": "CL.SU_HABITS_SMOKING_SU_360_1.SUYN.C66742", "Name": "NY", "DataType": "text", "CodeListItem": [{"CodedValue": "N", "Decode": {"TranslatedText": [{"_content": "No", "Type": "text/plain", "lang": "en"}]}}, {"CodedValue": "Y", "Decode": {"TranslatedText": [{"_content": "Yes", "Type": "text/plain", "lang": "en"}]}}], "Coding": [{"System": "https://www.cdisc.org/standards/terminology", "Code": "C66742", "SystemName": "CDISC/NCI CT"}]}, {"OID": "CL.SU_HABITS_SMOKING_CIGARETTEHX_360_2.SUPRESP.C66742", "Name": "NY", "DataType": "text", "CodeListItem": [{"CodedValue": "Y", "Coding": [{"System": "https://www.cdisc.org/standards/terminology", "Code": "C49488", "SystemName": "CDISC/NCI CT"}]}], "Coding": [{"System": "https://www.cdisc.org/standards/terminology", "Code": "C66742", "SystemName": "CDISC/NCI CT"}]}, {"OID": "CL.SU_HABITS_SMOKING_CIGARETTEHX_360_2.SUOCCUR.C66742", "Name": "NY", "DataType": "text", "CodeListItem": [{"CodedValue": "N", "Decode": {"TranslatedText": [{"_content": "No", "Type": "text/plain", "lang": "en"}]}}, {"CodedValue": "Y", "Decode": {"TranslatedText": [{"_content": "Yes", "Type": "text/plain", "lang": "en"}]}}], "Coding": [{"System": "https://www.cdisc.org/standards/terminology", "Code": "C66742", "SystemName": "CDISC/NCI CT"}]}, {"OID": "CL.SU_HABITS_SMOKING_CIGARETTEHX_360_2.SUDOSU.C71620", "Name": "UNIT", "DataType": "text", "CodeListItem": [{"CodedValue": "CIGARETTE", "Coding": [{"System": "https://www.cdisc.org/standards/terminology", "Code": "C116245", "SystemName": "CDISC/NCI CT"}]}], "Coding": [{"System": "https://www.cdisc.org/standards/terminology", "Code": "C71620", "SystemName": "CDISC/NCI CT"}]}, {"OID": "CL.SU_HABITS_SMOKING_CIGARETTEHX_360_2.SUPRIOR.C66742", "Name": "NY", "DataType": "text", "CodeListItem": [{"CodedValue": "N", "Decode": {"TranslatedText": [{"_content": "No", "Type": "text/plain", "lang": "en"}]}}, {"CodedValue": "Y", "Decode": {"TranslatedText": [{"_content": "Yes", "Type": "text/plain", "lang": "en"}]}}], "Coding": [{"System": "https://www.cdisc.org/standards/terminology", "Code": "C66742", "SystemName": "CDISC/NCI CT"}]}, {"OID": "CL.SU_HABITS_SMOKING_CIGARETTEHX_360_2.SUONGO.C66742", "Name": "NY", "DataType": "text", "CodeListItem": [{"CodedValue": "N", "Decode": {"TranslatedText": [{"_content": "No", "Type": "text/plain", "lang": "en"}]}}, {"CodedValue": "Y", "Decode": {"TranslatedText": [{"_content": "Yes", "Type": "text/plain", "lang": "en"}]}}], "Coding": [{"System": "https://www.cdisc.org/standards/terminology", "Code": "C66742", "SystemName": "CDISC/NCI CT"}]}, {"OID": "CL.SU_HABITS_SMOKING_CIGARHX_360_3.SUPRESP.C66742", "Name": "NY", "DataType": "text", "CodeListItem": [{"CodedValue": "Y", "Coding": [{"System": "https://www.cdisc.org/standards/terminology", "Code": "C49488", "SystemName": "CDISC/NCI CT"}]}], "Coding": [{"System": "https://www.cdisc.org/standards/terminology", "Code": "C66742", "SystemName": "CDISC/NCI CT"}]}, {"OID": "CL.SU_HABITS_SMOKING_CIGARHX_360_3.SUOCCUR.C66742", "Name": "NY", "DataType": "text", "CodeListItem": [{"CodedValue": "N", "Decode": {"TranslatedText": [{"_content": "No", "Type": "text/plain", "lang": "en"}]}}, {"CodedValue": "Y", "Decode": {"TranslatedText": [{"_content": "Yes", "Type": "text/plain", "lang": "en"}]}}], "Coding": [{"System": "https://www.cdisc.org/standards/terminology", "Code": "C66742", "SystemName": "CDISC/NCI CT"}]}, {"OID": "CL.SU_HABITS_SMOKING_CIGARHX_360_3.SUDOSU.C71620", "Name": "UNIT", "DataType": "text", "CodeListItem": [{"CodedValue": "CIGAR", "Coding": [{"System": "https://www.cdisc.org/standards/terminology", "Code": "C116244", "SystemName": "CDISC/NCI CT"}]}], "Coding": [{"System": "https://www.cdisc.org/standards/terminology", "Code": "C71620", "SystemName": "CDISC/NCI CT"}]}, {"OID": "CL.SU_HABITS_SMOKING_CIGARHX_360_3.SUPRIOR.C66742", "Name": "NY", "DataType": "text", "CodeListItem": [{"CodedValue": "N", "Decode": {"TranslatedText": [{"_content": "No", "Type": "text/plain", "lang": "en"}]}}, {"CodedValue": "Y", "Decode": {"TranslatedText": [{"_content": "Yes", "Type": "text/plain", "lang": "en"}]}}], "Coding": [{"System": "https://www.cdisc.org/standards/terminology", "Code": "C66742", "SystemName": "CDISC/NCI CT"}]}, {"OID": "CL.SU_HABITS_SMOKING_CIGARHX_360_3.SUONGO.C66742", "Name": "NY", "DataType": "text", "CodeListItem": [{"CodedValue": "N", "Decode": {"TranslatedText": [{"_content": "No", "Type": "text/plain", "lang": "en"}]}}, {"CodedValue": "Y", "Decode": {"TranslatedText": [{"_content": "Yes", "Type": "text/plain", "lang": "en"}]}}], "Coding": [{"System": "https://www.cdisc.org/standards/terminology", "Code": "C66742", "SystemName": "CDISC/NCI CT"}]}, {"OID": "CL.SU_HABITS_SMOKING_PIPEHX_360_4.SUPRESP.C66742", "Name": "NY", "DataType": "text", "CodeListItem": [{"CodedValue": "Y", "Coding": [{"System": "https://www.cdisc.org/standards/terminology", "Code": "C49488", "SystemName": "CDISC/NCI CT"}]}], "Coding": [{"System": "https://www.cdisc.org/standards/terminology", "Code": "C66742", "SystemName": "CDISC/NCI CT"}]}, {"OID": "CL.SU_HABITS_SMOKING_PIPEHX_360_4.SUOCCUR.C66742", "Name": "NY", "DataType": "text", "CodeListItem": [{"CodedValue": "N", "Decode": {"TranslatedText": [{"_content": "No", "Type": "text/plain", "lang": "en"}]}}, {"CodedValue": "Y", "Decode": {"TranslatedText": [{"_content": "Yes", "Type": "text/plain", "lang": "en"}]}}], "Coding": [{"System": "https://www.cdisc.org/standards/terminology", "Code": "C66742", "SystemName": "CDISC/NCI CT"}]}, {"OID": "CL.SU_HABITS_SMOKING_PIPEHX_360_4.SUDOSU.C71620", "Name": "UNIT", "DataType": "text", "CodeListItem": [{"CodedValue": "PIPE", "Coding": [{"System": "https://www.cdisc.org/standards/terminology", "Code": "C116246", "SystemName": "CDISC/NCI CT"}]}], "Coding": [{"System": "https://www.cdisc.org/standards/terminology", "Code": "C71620", "SystemName": "CDISC/NCI CT"}]}, {"OID": "CL.SU_HABITS_SMOKING_PIPEHX_360_4.SUPRIOR.C66742", "Name": "NY", "DataType": "text", "CodeListItem": [{"CodedValue": "N", "Decode": {"TranslatedText": [{"_content": "No", "Type": "text/plain", "lang": "en"}]}}, {"CodedValue": "Y", "Decode": {"TranslatedText": [{"_content": "Yes", "Type": "text/plain", "lang": "en"}]}}], "Coding": [{"System": "https://www.cdisc.org/standards/terminology", "Code": "C66742", "SystemName": "CDISC/NCI CT"}]}, {"OID": "CL.SU_HABITS_SMOKING_PIPEHX_360_4.SUONGO.C66742", "Name": "NY", "DataType": "text", "CodeListItem": [{"CodedValue": "N", "Decode": {"TranslatedText": [{"_content": "No", "Type": "text/plain", "lang": "en"}]}}, {"CodedValue": "Y", "Decode": {"TranslatedText": [{"_content": "Yes", "Type": "text/plain", "lang": "en"}]}}], "Coding": [{"System": "https://www.cdisc.org/standards/terminology", "Code": "C66742", "SystemName": "CDISC/NCI CT"}]}, {"OID": "CL.SU_HABITS_ALCOHOL_SU_360_1.SUYN.C66742", "Name": "NY", "DataType": "text", "CodeListItem": [{"CodedValue": "N", "Decode": {"TranslatedText": [{"_content": "No", "Type": "text/plain", "lang": "en"}]}}, {"CodedValue": "Y", "Decode": {"TranslatedText": [{"_content": "Yes", "Type": "text/plain", "lang": "en"}]}}], "Coding": [{"System": "https://www.cdisc.org/standards/terminology", "Code": "C66742", "SystemName": "CDISC/NCI CT"}]}, {"OID": "CL.SU_HABITS_ALCOHOL_BEERHX_360_2.SUPRESP.C66742", "Name": "NY", "DataType": "text", "CodeListItem": [{"CodedValue": "Y", "Coding": [{"System": "https://www.cdisc.org/standards/terminology", "Code": "C49488", "SystemName": "CDISC/NCI CT"}]}], "Coding": [{"System": "https://www.cdisc.org/standards/terminology", "Code": "C66742", "SystemName": "CDISC/NCI CT"}]}, {"OID": "CL.SU_HABITS_ALCOHOL_BEERHX_360_2.SUOCCUR.C66742", "Name": "NY", "DataType": "text", "CodeListItem": [{"CodedValue": "N", "Decode": {"TranslatedText": [{"_content": "No", "Type": "text/plain", "lang": "en"}]}}, {"CodedValue": "Y", "Decode": {"TranslatedText": [{"_content": "Yes", "Type": "text/plain", "lang": "en"}]}}], "Coding": [{"System": "https://www.cdisc.org/standards/terminology", "Code": "C66742", "SystemName": "CDISC/NCI CT"}]}, {"OID": "CL.SU_HABITS_ALCOHOL_BEERHX_360_2.SUDOSU.C71620", "Name": "UNIT", "DataType": "text", "CodeListItem": [{"CodedValue": "GLASS", "Decode": {"TranslatedText": [{"_content": "Glass", "Type": "text/plain", "lang": "en"}]}}, {"CodedValue": "DRINK", "Decode": {"TranslatedText": [{"_content": "Drink", "Type": "text/plain", "lang": "en"}]}}, {"CodedValue": "mL", "Decode": {"TranslatedText": [{"_content": "mL", "Type": "text/plain", "lang": "en"}]}}, {"CodedValue": "oz", "Decode": {"TranslatedText": [{"_content": "oz", "Type": "text/plain", "lang": "en"}]}}, {"CodedValue": "L", "Decode": {"TranslatedText": [{"_content": "L", "Type": "text/plain", "lang": "en"}]}}], "Coding": [{"System": "https://www.cdisc.org/standards/terminology", "Code": "C71620", "SystemName": "CDISC/NCI CT"}]}, {"OID": "CL.SU_HABITS_ALCOHOL_DISTILLEDSPIRITSHX_360_3.SUPRESP.C66742", "Name": "NY", "DataType": "text", "CodeListItem": [{"CodedValue": "Y", "Coding": [{"System": "https://www.cdisc.org/standards/terminology", "Code": "C49488", "SystemName": "CDISC/NCI CT"}]}], "Coding": [{"System": "https://www.cdisc.org/standards/terminology", "Code": "C66742", "SystemName": "CDISC/NCI CT"}]}, {"OID": "CL.SU_HABITS_ALCOHOL_DISTILLEDSPIRITSHX_360_3.SUOCCUR.C66742", "Name": "NY", "DataType": "text", "CodeListItem": [{"CodedValue": "N", "Decode": {"TranslatedText": [{"_content": "No", "Type": "text/plain", "lang": "en"}]}}, {"CodedValue": "Y", "Decode": {"TranslatedText": [{"_content": "Yes", "Type": "text/plain", "lang": "en"}]}}], "Coding": [{"System": "https://www.cdisc.org/standards/terminology", "Code": "C66742", "SystemName": "CDISC/NCI CT"}]}, {"OID": "CL.SU_HABITS_ALCOHOL_DISTILLEDSPIRITSHX_360_3.SUDOSU.C71620", "Name": "UNIT", "DataType": "text", "CodeListItem": [{"CodedValue": "DRINK", "Coding": [{"System": "https://www.cdisc.org/standards/terminology", "Code": "C161487", "SystemName": "CDISC/NCI CT"}]}], "Coding": [{"System": "https://www.cdisc.org/standards/terminology", "Code": "C71620", "SystemName": "CDISC/NCI CT"}]}, {"OID": "CL.SU_HABITS_ALCOHOL_WINEHX_360_4.SUPRESP.C66742", "Name": "NY", "DataType": "text", "CodeListItem": [{"CodedValue": "Y", "Coding": [{"System": "https://www.cdisc.org/standards/terminology", "Code": "C49488", "SystemName": "CDISC/NCI CT"}]}], "Coding": [{"System": "https://www.cdisc.org/standards/terminology", "Code": "C66742", "SystemName": "CDISC/NCI CT"}]}, {"OID": "CL.SU_HABITS_ALCOHOL_WINEHX_360_4.SUOCCUR.C66742", "Name": "NY", "DataType": "text", "CodeListItem": [{"CodedValue": "N", "Decode": {"TranslatedText": [{"_content": "No", "Type": "text/plain", "lang": "en"}]}}, {"CodedValue": "Y", "Decode": {"TranslatedText": [{"_content": "Yes", "Type": "text/plain", "lang": "en"}]}}], "Coding": [{"System": "https://www.cdisc.org/standards/terminology", "Code": "C66742", "SystemName": "CDISC/NCI CT"}]}, {"OID": "CL.SU_HABITS_ALCOHOL_WINEHX_360_4.SUDOSU.C71620", "Name": "UNIT", "DataType": "text", "CodeListItem": [{"CodedValue": "GLASS", "Coding": [{"System": "https://www.cdisc.org/standards/terminology", "Code": "C198391", "SystemName": "CDISC/NCI CT"}]}], "Coding": [{"System": "https://www.cdisc.org/standards/terminology", "Code": "C71620", "SystemName": "CDISC/NCI CT"}]}, {"OID": "CL.SU_HABITS_CAFFEINE_SU_360_1.SUYN.C66742", "Name": "NY", "DataType": "text", "CodeListItem": [{"CodedValue": "N", "Decode": {"TranslatedText": [{"_content": "No", "Type": "text/plain", "lang": "en"}]}}, {"CodedValue": "Y", "Decode": {"TranslatedText": [{"_content": "Yes", "Type": "text/plain", "lang": "en"}]}}], "Coding": [{"System": "https://www.cdisc.org/standards/terminology", "Code": "C66742", "SystemName": "CDISC/NCI CT"}]}, {"OID": "CL.SU_HABITS_CAFFEINE_COFFEEHX_360_2.SUPRESP.C66742", "Name": "NY", "DataType": "text", "CodeListItem": [{"CodedValue": "Y", "Coding": [{"System": "https://www.cdisc.org/standards/terminology", "Code": "C49488", "SystemName": "CDISC/NCI CT"}]}], "Coding": [{"System": "https://www.cdisc.org/standards/terminology", "Code": "C66742", "SystemName": "CDISC/NCI CT"}]}, {"OID": "CL.SU_HABITS_CAFFEINE_COFFEEHX_360_2.SUOCCUR.C66742", "Name": "NY", "DataType": "text", "CodeListItem": [{"CodedValue": "N", "Decode": {"TranslatedText": [{"_content": "No", "Type": "text/plain", "lang": "en"}]}}, {"CodedValue": "Y", "Decode": {"TranslatedText": [{"_content": "Yes", "Type": "text/plain", "lang": "en"}]}}], "Coding": [{"System": "https://www.cdisc.org/standards/terminology", "Code": "C66742", "SystemName": "CDISC/NCI CT"}]}, {"OID": "CL.SU_HABITS_CAFFEINE_COFFEEHX_360_2.SUDOSU.C71620", "Name": "UNIT", "DataType": "text", "CodeListItem": [{"CodedValue": "CUP", "Coding": [{"System": "https://www.cdisc.org/standards/terminology", "Code": "C54703", "SystemName": "CDISC/NCI CT"}]}], "Coding": [{"System": "https://www.cdisc.org/standards/terminology", "Code": "C71620", "SystemName": "CDISC/NCI CT"}]}, {"OID": "CL.SU_HABITS_CAFFEINE_TEAHIX_360_3.SUPRESP.C66742", "Name": "NY", "DataType": "text", "CodeListItem": [{"CodedValue": "Y", "Coding": [{"System": "https://www.cdisc.org/standards/terminology", "Code": "C49488", "SystemName": "CDISC/NCI CT"}]}], "Coding": [{"System": "https://www.cdisc.org/standards/terminology", "Code": "C66742", "SystemName": "CDISC/NCI CT"}]}, {"OID": "CL.SU_HABITS_CAFFEINE_TEAHIX_360_3.SUOCCUR.C66742", "Name": "NY", "DataType": "text", "CodeListItem": [{"CodedValue": "N", "Decode": {"TranslatedText": [{"_content": "No", "Type": "text/plain", "lang": "en"}]}}, {"CodedValue": "Y", "Decode": {"TranslatedText": [{"_content": "Yes", "Type": "text/plain", "lang": "en"}]}}], "Coding": [{"System": "https://www.cdisc.org/standards/terminology", "Code": "C66742", "SystemName": "CDISC/NCI CT"}]}, {"OID": "CL.SU_HABITS_CAFFEINE_TEAHIX_360_3.SUDOSU.C71620", "Name": "UNIT", "DataType": "text", "CodeListItem": [{"CodedValue": "CUP", "Coding": [{"System": "https://www.cdisc.org/standards/terminology", "Code": "C54703", "SystemName": "CDISC/NCI CT"}]}], "Coding": [{"System": "https://www.cdisc.org/standards/terminology", "Code": "C71620", "SystemName": "CDISC/NCI CT"}]}, {"OID": "CL.SU_HABITS_CAFFEINE_COLAHX_360_4.SUPRESP.C66742", "Name": "NY", "DataType": "text", "CodeListItem": [{"CodedValue": "Y", "Coding": [{"System": "https://www.cdisc.org/standards/terminology", "Code": "C49488", "SystemName": "CDISC/NCI CT"}]}], "Coding": [{"System": "https://www.cdisc.org/standards/terminology", "Code": "C66742", "SystemName": "CDISC/NCI CT"}]}, {"OID": "CL.SU_HABITS_CAFFEINE_COLAHX_360_4.SUOCCUR.C66742", "Name": "NY", "DataType": "text", "CodeListItem": [{"CodedValue": "N", "Decode": {"TranslatedText": [{"_content": "No", "Type": "text/plain", "lang": "en"}]}}, {"CodedValue": "Y", "Decode": {"TranslatedText": [{"_content": "Yes", "Type": "text/plain", "lang": "en"}]}}], "Coding": [{"System": "https://www.cdisc.org/standards/terminology", "Code": "C66742", "SystemName": "CDISC/NCI CT"}]}, {"OID": "CL.SU_HABITS_CAFFEINE_COLAHX_360_4.SUDOSU.C71620", "Name": "UNIT", "DataType": "text", "CodeListItem": [{"CodedValue": "DRINK", "Coding": [{"System": "https://www.cdisc.org/standards/terminology", "Code": "C161487", "SystemName": "CDISC/NCI CT"}]}], "Coding": [{"System": "https://www.cdisc.org/standards/terminology", "Code": "C71620", "SystemName": "CDISC/NCI CT"}]}]}]}]}