package_date,bc_id,vlm_group_id,standard,standard_start_version,standard_end_version,domain,collection_group_id,implementation_option,scenario,short_name,collection_item,variable_name,dec_id,question_text,prompt,order_number,mandatory_variable,data_type,length,significant_digits,display_hidden,codelist,codelist_submission_value,value_list,value_display_list,selection_type,prepopulated_term,prepopulated_code,sdtm_target_variable,sdtm_annotation,sdtm_mapping
2025-12-31,C83347,,CDASHIG,2-1,,AE,AE,,,Adverse Event Yes No Indicator,AEYN,AEYN,C83347,Were any adverse events experienced?,,1,N,text,1,,N,C66742,NY,N;Y,No;Yes,Single,,,,[NOT SUBMITTED],
2025-12-31,C179175,AE,CDASHIG,2-1,,AE,AE_HORIZONTAL,Horizontal,,Adverse Event Free Text Format (Horizontal),AETERM,AETERM,C78541,,Adverse Event,1,Y,text,200,,N,,,,,,,,AETERM,AETERM,
2025-12-31,C179175,AE,CDASHIG,2-1,,AE,AE_HORIZONTAL,Horizontal,,Adverse Event Free Text Format (Horizontal),AESTDAT,AESTDAT,C83215,,Start Date,2,Y,date,10,,N,,,,,,,,AESTDAT,AESTDAT,
2025-12-31,C179175,AE,CDASHIG,2-1,,AE,AE_HORIZONTAL,Horizontal,,Adverse Event Free Text Format (Horizontal),AEONGO,AEONGO,C83051,,Ongoing (as of [the study-specific time point or period]),3,N,text,1,,N,,,N;Y,No;Yes,Single,,,AEONGO,AEONGO,
2025-12-31,C179175,AE,CDASHIG,2-1,,AE,AE_HORIZONTAL,Horizontal,,Adverse Event Free Text Format (Horizontal),AEENDAT,AEENDAT,C83201,,End Date,4,Y,date,10,,N,,,,,,,,AEENDAT,AEENDAT,
2025-12-31,C179175,AE,CDASHIG,2-1,,AE,AE_HORIZONTAL,Horizontal,,Adverse Event Free Text Format (Horizontal),AESEV,AESEV,C53253,,Severity,5,N,text,200,,N,C66769,AESEV,MILD;MODERATE;SEVERE,Mild;Moderate;Severe,Single,,,AESEV,AESEV,
2025-12-31,C179175,AE,CDASHIG,2-1,,AE,AE_HORIZONTAL,Horizontal,,Adverse Event Free Text Format (Horizontal),AESER,AESER,C53252,,Serious,6,Y,text,1,,N,C66742,NY,N;Y,No;Yes,Single,,,AESER,AESER,
2025-12-31,C179175,AE,CDASHIG,2-1,,AE,AE_HORIZONTAL,Horizontal,,Adverse Event Free Text Format (Horizontal),AESDTH,AESDTH,C48275,,Death,7,N,text,1,,N,C66742,NY,N;Y,No;Yes,Single,,,AESDTH,AESDTH,
2025-12-31,C179175,AE,CDASHIG,2-1,,AE,AE_HORIZONTAL,Horizontal,,Adverse Event Free Text Format (Horizontal),AESLIFE,AESLIFE,C84266,,Life Threatening,8,N,text,1,,N,C66742,NY,N;Y,No;Yes,Single,,,AESLIFE,AESLIFE,
2025-12-31,C179175,AE,CDASHIG,2-1,,AE,AE_HORIZONTAL,Horizontal,,Adverse Event Free Text Format (Horizontal),AESHOSP,AESHOSP,C83052,,Hospitalization (initial or prolonged),9,N,text,1,,N,C66742,NY,N;Y,No;Yes,Single,,,AESHOSP,AESHOSP,
2025-12-31,C179175,AE,CDASHIG,2-1,,AE,AE_HORIZONTAL,Horizontal,,Adverse Event Free Text Format (Horizontal),AESDISAB,AESDISAB,C113380,,Disability or Permanent Damage,10,N,text,1,,N,C66742,NY,N;Y,No;Yes,Single,,,AESDISAB,AESDISAB,
2025-12-31,C179175,AE,CDASHIG,2-1,,AE,AE_HORIZONTAL,Horizontal,,Adverse Event Free Text Format (Horizontal),AESCONG,AESCONG,C83117,,Congenital Anomaly or Birth Defect,11,N,text,1,,N,C66742,NY,N;Y,No;Yes,Single,,,AESCONG,AESCONG,
2025-12-31,C179175,AE,CDASHIG,2-1,,AE,AE_HORIZONTAL,Horizontal,,Adverse Event Free Text Format (Horizontal),AESMIE,AESMIE,C83053,,Other Serious (Important Medical Events),12,N,text,1,,N,C66742,NY,N;Y,No;Yes,Single,,,AESMIE,AESMIE,
2025-12-31,C179175,AE,CDASHIG,2-1,,AE,AE_HORIZONTAL,Horizontal,,Adverse Event Free Text Format (Horizontal),AEREL,AEREL,C41358,,Relationship to Study Treatment,13,Y,text,1,,N,C66742,NY,N;Y,No;Yes,Single,,,AEREL,AEREL,
2025-12-31,C179175,AE,CDASHIG,2-1,,AE,AE_HORIZONTAL,Horizontal,,Adverse Event Free Text Format (Horizontal),AEACN,AEACN,C83013,,Action Taken with Study Treatment,14,Y,text,200,,N,C66767,ACN,DOSE INCREASED;DOSE NOT CHANGED;DOSE RATE REDUCED;DOSE REDUCED;DRUG INTERRUPTED;DRUG WITHDRAWN;NOT APPLICABLE;UNKNOWN,Dose Increased;Dose Not Changed;Dose Rate Reduced;Dose Reduced;Drug Interrupted;Drug Withdrawn;Not Applicable;Unknown,Multiple,,,AEACN,AEACN,
2025-12-31,C179175,AE,CDASHIG,2-1,,AE,AE_HORIZONTAL,Horizontal,,Adverse Event Free Text Format (Horizontal),AEACNOTH,AEACNOTH,C83109,,Other Action Taken,15,N,text,200,,N,,,,,,,,AEACNOTH,AEACNOTH,
2025-12-31,C179175,AE,CDASHIG,2-1,,AE,AE_HORIZONTAL,Horizontal,,Adverse Event Free Text Format (Horizontal),AEOUT,AEOUT,C49489,,Outcome,16,N,text,200,,N,C66768,OUT,FATAL;NOT RECOVERED/NOT RESOLVED;RECOVERED/RESOLVED;RECOVERED/RESOLVED WITH SEQUELAE;RECOVERING/RESOLVING;UNKNOWN,Fatal;Not Recovered/Not Resolved;Recovered/Resolved;Recovered/Resolved With Sequelae;Recovering/Resolving;Unknown,Single,,,AEOUT,AEOUT,
2025-12-31,C179175,AE,CDASHIG,2-1,,AE,AE_VERTICAL,Vertical,,Adverse Event Free Text Format (Vertical),AETERM,AETERM,C78541,What is the adverse event term?,,1,Y,text,200,,N,,,,,,,,AETERM,AETERM,
2025-12-31,C179175,AE,CDASHIG,2-1,,AE,AE_VERTICAL,Vertical,,Adverse Event Free Text Format (Vertical),AESTDAT,AESTDAT,C83215,What is the adverse event start date?,,2,Y,date,10,,N,,,,,,,,AESTDAT,AESTDAT,
2025-12-31,C179175,AE,CDASHIG,2-1,,AE,AE_VERTICAL,Vertical,,Adverse Event Free Text Format (Vertical),AEONGO,AEONGO,C83051,Is the adverse event ongoing (as of [the study-specific time point or period])?,,3,N,text,1,,N,,,N;Y,No;Yes,Single,,,AEENRTPT;AEENRF,[NOT SUBMITTED];AEENRTPT; AEENRF,
2025-12-31,C179175,AE,CDASHIG,2-1,,AE,AE_VERTICAL,Vertical,,Adverse Event Free Text Format (Vertical),AEENDAT,AEENDAT,C83201,What was the adverse event end date?,,4,Y,date,10,,N,,,,,,,,AEENDAT,AEENDAT,
2025-12-31,C179175,AE,CDASHIG,2-1,,AE,AE_VERTICAL,Vertical,,Adverse Event Free Text Format (Vertical),AESEV,AESEV,C53253,What is the severity of the adverse event?,,5,N,text,200,,N,C66769,AESEV,MILD;MODERATE;SEVERE,Mild;Moderate;Severe,Single,,,AESEV,AESEV,
2025-12-31,C179175,AE,CDASHIG,2-1,,AE,AE_VERTICAL,Vertical,,Adverse Event Free Text Format (Vertical),AESER,AESER,C53252,Was the adverse event serious?,,6,Y,text,1,,N,C66742,NY,N;Y,No;Yes,Single,,,AESER,AESER,
2025-12-31,C179175,AE,CDASHIG,2-1,,AE,AE_VERTICAL,Vertical,,Adverse Event Free Text Format (Vertical),AESDTH,AESDTH,C48275,Did the adverse event result in death?,,7,N,text,1,,N,C66742,NY,N;Y,No;Yes,Single,,,AESDTH,AESDTH,
2025-12-31,C179175,AE,CDASHIG,2-1,,AE,AE_VERTICAL,Vertical,,Adverse Event Free Text Format (Vertical),AESLIFE,AESLIFE,C84266,Was the adverse event life threatening?,,8,N,text,1,,N,C66742,NY,N;Y,No;Yes,Single,,,AESLIFE,AESLIFE,
2025-12-31,C179175,AE,CDASHIG,2-1,,AE,AE_VERTICAL,Vertical,,Adverse Event Free Text Format (Vertical),AESHOSP,AESHOSP,C83052,Did the adverse event result in initial or prolonged     hospitalization for the subject?,,9,N,text,1,,N,C66742,NY,N;Y,No;Yes,Single,,,AESHOSP,AESHOSP,
2025-12-31,C179175,AE,CDASHIG,2-1,,AE,AE_VERTICAL,Vertical,,Adverse Event Free Text Format (Vertical),AESDISAB,AESDISAB,C113380,Did the adverse event result in disability or permanent     damage?,,10,N,text,1,,N,C66742,NY,N;Y,No;Yes,Single,,,AESDISAB,AESDISAB,
2025-12-31,C179175,AE,CDASHIG,2-1,,AE,AE_VERTICAL,Vertical,,Adverse Event Free Text Format (Vertical),AESCONG,AESCONG,C83117,Was the adverse event associated with a congenital anomaly or birth defect?,,11,N,text,1,,N,C66742,NY,N;Y,No;Yes,Single,,,AESCONG,AESCONG,
2025-12-31,C179175,AE,CDASHIG,2-1,,AE,AE_VERTICAL,Vertical,,Adverse Event Free Text Format (Vertical),AESMIE,AESMIE,C83053,Was the adverse event a medically important event not covered by other serious criteria?,,12,N,text,1,,N,C66742,NY,N;Y,No;Yes,Single,,,AESMIE,AESMIE,
2025-12-31,C179175,AE,CDASHIG,2-1,,AE,AE_VERTICAL,Vertical,,Adverse Event Free Text Format (Vertical),AEREL,AEREL,C41358,Was this adverse event related to study treatment?,,13,Y,text,1,,N,C66742,NY,N;Y,No;Yes,Single,,,AEREL,AEREL,
2025-12-31,C179175,AE,CDASHIG,2-1,,AE,AE_VERTICAL,Vertical,,Adverse Event Free Text Format (Vertical),AEACN,AEACN,C83013,What action was taken with study treatment?,,14,Y,text,200,,N,C66767,ACN,DOSE INCREASED;DOSE NOT CHANGED;DOSE RATE REDUCED;DOSE REDUCED;DRUG INTERRUPTED;DRUG WITHDRAWN;NOT APPLICABLE;UNKNOWN,Dose Increased;Dose Not Changed;Dose Rate Reduced;Dose Reduced;Drug Interrupted;Drug Withdrawn;Not Applicable;Unknown,Multiple,,,AEACN,AEACN,
2025-12-31,C179175,AE,CDASHIG,2-1,,AE,AE_VERTICAL,Vertical,,Adverse Event Free Text Format (Vertical),AEACNOTH,AEACNOTH,C83109,What other action was taken?,,15,N,text,200,,N,,,,,,,,AEACNOTH,AEACNOTH,
2025-12-31,C179175,AE,CDASHIG,2-1,,AE,AE_VERTICAL,Vertical,,Adverse Event Free Text Format (Vertical),AEOUT,AEOUT,C49489,What is the outcome of this adverse event?,,16,N,text,200,,N,C66768,OUT,FATAL;NOT RECOVERED/NOT RESOLVED;RECOVERED/RESOLVED;RECOVERED/RESOLVED WITH SEQUELAE;RECOVERING/RESOLVING;UNKNOWN,Fatal;Not Recovered/Not Resolved;Recovered/Resolved;Recovered/Resolved With Sequelae;Recovering/Resolving;Unknown,Single,,,AEOUT,AEOUT,
2025-12-31,C69260,AGE,CDASHIG,2-1,,DM,AGE,,,AGE,DMDAT,DMDAT,C82515,,Collection Date,1,N,date,10,,N,,,,,,,,DMDTC,DMDTC,
2025-12-31,C69260,AGE,CDASHIG,2-1,,DM,AGE,,,AGE,AGE,AGE,C170981,What is the subject's age?,,2,Y,integer,3,,N,,,,,,,,AGE,AGE,
2025-12-31,C69260,AGE,CDASHIG,2-1,,DM,AGE,,,AGE,AGEU,AGEU,C50400,,Age Unit,3,Y,text,20,,N,C66781,AGEU,DAYS;HOURS;MONTHS;WEEKS;YEARS,Days;Hours;Months;Weeks;Years,Single,,,AGEU,AGEU,
2025-12-31,C83217,BRTHDTC,CDASHIG,2-1,,DM,BRTHDTC,,,Date/Time of Birth,DMDAT,DMDAT,C82515,,Collection Date,1,N,date,10,,N,,,,,,,,DMDTC,DMDTC,
2025-12-31,C83217,BRTHDTC,CDASHIG,2-1,,DM,BRTHDTC,,,Date/Time of Birth,BRTHDAT,BRTHDAT,C70856,What is the subject's date of birth?,,2,Y,date,10,,N,,,,,,,,BRTHDTC,BRTHDTC,
2025-12-31,C83217,BRTHDTC,CDASHIG,2-1,,DM,BRTHDTC,,,Date/Time of Birth,BRTHTIM,BRTHTIM,C70856,What is the subject's time of birth?,,3,N,time,5,,N,,,,,,,,BRTHDTC,BRTHDTC,
2025-12-31,C16564,ETHNIC,CDASHIG,2-1,,DM,ETHNIC,,,ETHNIC,DMDAT,DMDAT,C82515,,Collection Date,1,N,date,10,,N,,,,,,,,DMDTC,DMDTC,
2025-12-31,C16564,ETHNIC,CDASHIG,2-1,,DM,ETHNIC,,,ETHNIC,ETHNIC,ETHNIC,C16564,What is the ethnicity of the subject?,,2,Y,text,100,,N,C66790,ETHNIC,HISPANIC OR LATINO;NOT HISPANIC OR LATINO;NOT REPORTED;UNKNOWN,Hispanic Or Latino;Not Hispanic Or Latino;Not Reported;Unknown,Single,,,ETHNIC,ETHNIC,
2025-12-31,C17049,RACE,CDASHIG,2-1,,DM,RACE,,,RACE,DMDAT,DMDAT,C82515,,Collection Date,1,N,date,10,,N,,,,,,,,DMDTC,DMDTC,
2025-12-31,C17049,RACE,CDASHIG,2-1,,DM,RACE,,,RACE,RACE,RACE,C17049,Which of the following five racial designations best describes you?,,2,Y,text,100,,N,C74457,RACE,AMERICAN INDIAN OR ALASKA NATIVE;ASIAN;BLACK OR AFRICAN AMERICAN;NATIVE HAWAIIAN OR OTHER PACIFIC ISLANDER;NOT REPORTED;OTHER;UNKNOWN;WHITE,American Indian Or Alaska Native;Asian;Black Or African American;Native Hawaiian Or Other Pacific Islander;Not Reported;Other;Unknown;White,Multiple,,,RACE,RACE,
2025-12-31,C17049,RACE,CDASHIG,2-1,,DM,RACE,,,RACE,RACEOTH,RACEOTH,,,Specify Other Race,3,Y,text,200,,N,,,,,,,,RACEOTH,RACEOTH in SUPPDM,
2025-12-31,C28421,SEX,CDASHIG,2-1,,DM,SEX,,,SEX,DMDAT,DMDAT,C82515,,Collection Date,1,N,date,10,,N,,,,,,,,DMDTC,DMDTC,
2025-12-31,C28421,SEX,CDASHIG,2-1,,DM,SEX,,,SEX,SEX,SEX,C28421,What is the sex of the subject?,,2,Y,text,100,,N,C66731,SEX,F;M;U;INTERSEX,Female;Male;Unknown;Intersex,Single,,,SEX,SEX,
2025-12-31,C119259,EGHRMN,CDASHIG,2-1,,EG,EGHRMN_HORIZONTAL,Horizontal,LOCAL READING,Mean Heart Rate by Electrocardiogram (Horizontal),EGDAT,EGDAT,C82515,,Date of Assessment,1,N,date,10,,N,,,,,,,,EGDTC,EGDTC,
2025-12-31,C119259,EGHRMN,CDASHIG,2-1,,EG,EGHRMN_HORIZONTAL,Horizontal,LOCAL READING,Mean Heart Rate by Electrocardiogram (Horizontal),EGMETHOD,EGMETHOD,C82535,,Method,2,Y,text,50,,N,C71151,EGMETHOD,,,,12 LEAD STANDARD,C71102,EGMETHOD,EGMETHOD = 12 LEAD STANDARD when EGTESTCD = EGHRMN,
2025-12-31,C119259,EGHRMN,CDASHIG,2-1,,EG,EGHRMN_HORIZONTAL,Horizontal,LOCAL READING,Mean Heart Rate by Electrocardiogram (Horizontal),EGPOS,EGPOS,C62164,,Position,3,N,text,50,,N,C71148,POSITION,SEMI-FOWLERS;SEMI-RECUMBENT;SITTING;STANDING;SUPINE,Semi-Fowlers;Semi-Recumbent;Sitting;Standing;Supine,Single,,,EGPOS,EGPOS,
2025-12-31,C119259,EGHRMN,CDASHIG,2-1,,EG,EGHRMN_HORIZONTAL,Horizontal,LOCAL READING,Mean Heart Rate by Electrocardiogram (Horizontal),EGHRMN_EGORRES,EGORRES,C49148,,ECG Mean Heart Rate Result,4,Y,integer,3,,N,,,,,,,,EGORRES;EGTEST;EGTESTCD,EGORRES when EGTESTCD = EGHRMN,
2025-12-31,C119259,EGHRMN,CDASHIG,2-1,,EG,EGHRMN_HORIZONTAL,Horizontal,LOCAL READING,Mean Heart Rate by Electrocardiogram (Horizontal),EGHRMN_EGORRESU,EGORRESU,C73688,,Unit,5,Y,text,50,,N,C71620,UNIT,,,,beats/min,C49673,EGORRESU;EGTEST;EGTESTCD,EGORRESU = beats/min when EGTESTCD = EGHRMN,
2025-12-31,C119259,EGHRMN,CDASHIG,2-1,,EG,EGHRMN_VERTICAL,Vertical,LOCAL READING,Mean Heart Rate by Electrocardiogram (Vertical),EGDAT,EGDAT,C82515,What was the date of assessment?,,1,N,date,10,,N,,,,,,,,EGDTC,EGDTC,
2025-12-31,C119259,EGHRMN,CDASHIG,2-1,,EG,EGHRMN_VERTICAL,Vertical,LOCAL READING,Mean Heart Rate by Electrocardiogram (Vertical),EGMETHOD,EGMETHOD,C82535,What was the method used for the ECG?,,2,Y,text,50,,N,C71151,EGMETHOD,,,,12 LEAD STANDARD,C71102,EGMETHOD,EGMETHOD = 12 LEAD STANDARD when EGTESTCD = EGHRMN,
2025-12-31,C119259,EGHRMN,CDASHIG,2-1,,EG,EGHRMN_VERTICAL,Vertical,LOCAL READING,Mean Heart Rate by Electrocardiogram (Vertical),EGPOS,EGPOS,C62164,What was the position of the subject during the ECG measurement?,,3,N,text,50,,N,C71148,POSITION,SEMI-FOWLERS;SEMI-RECUMBENT;SITTING;STANDING;SUPINE,Semi-Fowlers;Semi-Recumbent;Sitting;Standing;Supine,Single,,,EGPOS,EGPOS,
2025-12-31,C119259,EGHRMN,CDASHIG,2-1,,EG,EGHRMN_VERTICAL,Vertical,LOCAL READING,Mean Heart Rate by Electrocardiogram (Vertical),EGHRMN,EGORRES,C49148,ECG Mean Heart Rate Result,,4,Y,integer,3,,N,,,,,,,,EGORRES;EGTEST;EGTESTCD,EGORRES when EGTESTCD = EGHRMN,
2025-12-31,C119259,EGHRMN,CDASHIG,2-1,,EG,EGHRMN_VERTICAL,Vertical,LOCAL READING,Mean Heart Rate by Electrocardiogram (Vertical),EGHRMNU,EGORRESU,C73688,ECG Mean Heart Rate Result Unit,,5,Y,text,50,,N,C71620,UNIT,,,,beats/min,C49673,EGORRESU;EGTEST;EGTESTCD,EGORRESU = beats/min when EGTESTCD = EGHRMN,
2025-12-31,C181655,EGINTP,CDASHIG,2-1,,EG,EGINTP_HORIZONTAL,Horizontal,LOCAL READING,ECG Interpretation (Horizontal),EGDAT,EGDAT,C82515,,Date of Assessment,1,N,date,10,,N,,,,,,,,EGDTC,EGDTC,
2025-12-31,C181655,EGINTP,CDASHIG,2-1,,EG,EGINTP_HORIZONTAL,Horizontal,LOCAL READING,ECG Interpretation (Horizontal),EGINTP_EGORRES,EGORRES,C125009,,Interpretation,2,Y,text,50,,N,C101834,NORMABNM,ABNORMAL;NORMAL,Abnormal;Normal,Single,,,EGORRES;EGTEST;EGTESTCD,EGORRES when EGTESTCD = EGINTP,
2025-12-31,C181655,EGINTP,CDASHIG,2-1,,EG,EGINTP_HORIZONTAL,Horizontal,LOCAL READING,ECG Interpretation (Horizontal),EGCLSIG,EGCLSIG,C93532,,Was the ECG clinically significant?,3,N,text,1,,N,C66742,NY,N;Y,No;Yes,Single,,,EGCLSIG,EGCLSIG,
2025-12-31,C181655,EGINTP,CDASHIG,2-1,,EG,EGINTP_HORIZONTAL,Horizontal,LOCAL READING,ECG Interpretation (Horizontal),EGEVAL,EGEVAL,C51824,,Evaluator,4,N,text,50,,N,C78735,EVAL,ADJUDICATION COMMITTEE;INDEPENDENT ASSESSOR;INVESTIGATOR,Adjudication Committee;Independent Assessor;Investigator,Single,,,EGEVAL,EGEVAL,
2025-12-31,C181655,EGINTP,CDASHIG,2-1,,EG,EGINTP_VERTICAL,Vertical,LOCAL READING,ECG Interpretation (Vertical),EGDAT,EGDAT,C82515,What was the date of assessment?,,1,N,date,10,,N,,,,,,,,EGDTC,EGDTC,
2025-12-31,C181655,EGINTP,CDASHIG,2-1,,EG,EGINTP_VERTICAL,Vertical,LOCAL READING,ECG Interpretation (Vertical),INTP,EGORRES,C125009,Interpretation,,2,Y,integer,3,,N,C101834,NORMABNM,ABNORMAL;NORMAL,Abnormal;Normal,Single,,,EGORRES;EGTEST;EGTESTCD,EGORRES when EGTESTCD = EGINTP,
2025-12-31,C181655,EGINTP,CDASHIG,2-1,,EG,EGINTP_VERTICAL,Vertical,LOCAL READING,ECG Interpretation (Vertical),EGCLSIG,EGCLSIG,C93532,Was the ECG clinically significant?,,3,N,text,1,,N,C66742,NY,N;Y,No;Yes,Single,,,EGCLSIG,EGCLSIG,
2025-12-31,C181655,EGINTP,CDASHIG,2-1,,EG,EGINTP_VERTICAL,Vertical,LOCAL READING,ECG Interpretation (Vertical),EGEVAL,EGEVAL,C51824,Who was the evaluator?,,4,N,text,50,,N,C78735,EVAL,ADJUDICATION COMMITTEE;INDEPENDENT ASSESSOR;INVESTIGATOR,Adjudication Committee;Independent Assessor;Investigator,Single,,,EGEVAL,EGEVAL,
2025-12-31,C82525,,CDASHIG,2-1,,EG,EGPERF,,,ECG Performed,EGPERF,EGPERF,C82525,Was an ECG performed?,,1,Y,text,1,,N,C66742,NY,N;Y,No;Yes,Single,,,,[NOT SUBMITTED]; EGSTAT = NOT DONE when EGTESTCD = EGALL,
2025-12-31,C82525,,CDASHIG,2-1,,EG,EGPERF,,,ECG Performed,EGDAT,EGDAT,C82515,Date of Assessment,,2,N,date,10,,N,,,,,,,,EGDTC,EGDTC,
2025-12-31,C117773,PRAG,CDASHIG,2-1,,EG,PRAG_HORIZONTAL,Horizontal,LOCAL READING,PR Interval Aggregate (Horizontal),EGDAT,EGDAT,C82515,,Date of Assessment,1,N,date,10,,N,,,,,,,,EGDTC,EGDTC,
2025-12-31,C117773,PRAG,CDASHIG,2-1,,EG,PRAG_HORIZONTAL,Horizontal,LOCAL READING,PR Interval Aggregate (Horizontal),EGMETHOD,EGMETHOD,C82535,,Method,2,Y,text,50,,N,C71151,EGMETHOD,,,,12 LEAD STANDARD,C71102,EGMETHOD,EGMETHOD = 12 LEAD STANDARD when EGTESTCD = PRAG,
2025-12-31,C117773,PRAG,CDASHIG,2-1,,EG,PRAG_HORIZONTAL,Horizontal,LOCAL READING,PR Interval Aggregate (Horizontal),EGPOS,EGPOS,C62164,,Position,3,N,text,50,,N,C71148,POSITION,SEMI-FOWLERS;SEMI-RECUMBENT;SITTING;STANDING;SUPINE,Semi-Fowlers;Semi-Recumbent;Sitting;Standing;Supine,Single,,,EGPOS,EGPOS,
2025-12-31,C117773,PRAG,CDASHIG,2-1,,EG,PRAG_HORIZONTAL,Horizontal,LOCAL READING,PR Interval Aggregate (Horizontal),PRAG_EGORRES,EGORRES,C25330,,"PR Interval, Single Beat Result",4,Y,integer,3,,N,,,,,,,,EGORRES;EGTEST;EGTESTCD,EGORRES when EGTESTCD = PRAG,
2025-12-31,C117773,PRAG,CDASHIG,2-1,,EG,PRAG_HORIZONTAL,Horizontal,LOCAL READING,PR Interval Aggregate (Horizontal),PRAG_EGORRESU,EGORRESU,C42574,,Unit,5,Y,text,50,,N,C71620,UNIT,ms;/s,msec;per sec,Single,,,EGORRESU;EGTEST;EGTESTCD,EGORRESU when EGTESTCD = PRAG,
2025-12-31,C117773,PRAG,CDASHIG,2-1,,EG,PRAG_VERTICAL,Vertical,LOCAL READING,PR Interval Aggregate (Vertical),EGDAT,EGDAT,C82515,What was the date of assessment?,,1,N,date,10,,N,,,,,,,,EGDTC,EGDTC,
2025-12-31,C117773,PRAG,CDASHIG,2-1,,EG,PRAG_VERTICAL,Vertical,LOCAL READING,PR Interval Aggregate (Vertical),EGMETHOD,EGMETHOD,C82535,What was the method used for the ECG?,,2,Y,integer,3,,N,C71151,EGMETHOD,,,,12 LEAD STANDARD,C71102,EGMETHOD,EGMETHOD = 12 LEAD STANDARD when EGTESTCD = PRAG,
2025-12-31,C117773,PRAG,CDASHIG,2-1,,EG,PRAG_VERTICAL,Vertical,LOCAL READING,PR Interval Aggregate (Vertical),EGPOS,EGPOS,C62164,What was the position of the subject during the ECG measurement?,,3,N,text,50,,N,C71148,POSITION,SEMI-FOWLERS;SEMI-RECUMBENT;SITTING;STANDING;SUPINE,Semi-Fowlers;Semi-Recumbent;Sitting;Standing;Supine,Single,,,EGPOS,EGPOS,
2025-12-31,C117773,PRAG,CDASHIG,2-1,,EG,PRAG_VERTICAL,Vertical,LOCAL READING,PR Interval Aggregate (Vertical),PRAG,EGORRES,C25330,"PR Interval, Single Beat Result",,4,Y,integer,3,,N,,,,,,,,EGORRES;EGTEST;EGTESTCD,EGORRES when EGTESTCD = PRAG,
2025-12-31,C117773,PRAG,CDASHIG,2-1,,EG,PRAG_VERTICAL,Vertical,LOCAL READING,PR Interval Aggregate (Vertical),PRAGU,EGORRESU,C42574,"PR Interval, Single Beat Result Unit",,5,Y,text,50,,N,C71620,UNIT,ms;/s,msec;per sec,Single,,,EGORRESU;EGTEST;EGTESTCD,EGORRESU when EGTESTCD = PRAG,
2025-12-31,C117779,QRSAG,CDASHIG,2-1,,EG,QRSAG_HORIZONTAL,Horizontal,LOCAL READING,QRS Duration Aggregate (Horizontal),EGDAT,EGDAT,C82515,,Date of Assessment,1,N,date,10,,N,,,,,,,,EGDTC,EGDTC,
2025-12-31,C117779,QRSAG,CDASHIG,2-1,,EG,QRSAG_HORIZONTAL,Horizontal,LOCAL READING,QRS Duration Aggregate (Horizontal),EGMETHOD,EGMETHOD,C82535,,Method,2,Y,text,50,,N,C71151,EGMETHOD,,,,12 LEAD STANDARD,C71102,EGMETHOD,EGMETHOD = 12 LEAD STANDARD when EGTESTCD = QRSAG,
2025-12-31,C117779,QRSAG,CDASHIG,2-1,,EG,QRSAG_HORIZONTAL,Horizontal,LOCAL READING,QRS Duration Aggregate (Horizontal),EGPOS,EGPOS,C62164,,Position,3,N,text,50,,N,C71148,POSITION,SEMI-FOWLERS;SEMI-RECUMBENT;SITTING;STANDING;SUPINE,Semi-Fowlers;Semi-Recumbent;Sitting;Standing;Supine,Single,,,EGPOS,EGPOS,
2025-12-31,C117779,QRSAG,CDASHIG,2-1,,EG,QRSAG_HORIZONTAL,Horizontal,LOCAL READING,QRS Duration Aggregate (Horizontal),QRSAG_EGORRES,EGORRES,C25330,,"QRS Duration, Aggregate Result",4,Y,integer,3,,N,,,,,,,,EGORRES;EGTEST;EGTESTCD,EGORRES when EGTESTCD = QRSAG,
2025-12-31,C117779,QRSAG,CDASHIG,2-1,,EG,QRSAG_HORIZONTAL,Horizontal,LOCAL READING,QRS Duration Aggregate (Horizontal),QRSAG_EGORRESU,EGORRESU,C42574,,Unit,5,Y,text,50,,N,C71620,UNIT,ms;/s,msec;per sec,Single,,,EGORRESU;EGTEST;EGTESTCD,EGORRESU when EGTESTCD = QRSAG,
2025-12-31,C117779,QRSAG,CDASHIG,2-1,,EG,QRSAG_VERTICAL,Vertical,LOCAL READING,QRS Duration Aggregate (Vertical),EGDAT,EGDAT,C82515,What was the date of assessment?,,1,N,date,10,,N,,,,,,,,EGDTC,EGDTC,
2025-12-31,C117779,QRSAG,CDASHIG,2-1,,EG,QRSAG_VERTICAL,Vertical,LOCAL READING,QRS Duration Aggregate (Vertical),EGMETHOD,EGMETHOD,C82535,What was the method used for the ECG?,,2,Y,text,100,,N,C71151,EGMETHOD,,,,12 LEAD STANDARD,C71102,EGMETHOD,EGMETHOD = 12 LEAD STANDARD when EGTESTCD = QRSAG,
2025-12-31,C117779,QRSAG,CDASHIG,2-1,,EG,QRSAG_VERTICAL,Vertical,LOCAL READING,QRS Duration Aggregate (Vertical),EGPOS,EGPOS,C62164,What was the position of the subject during the ECG measurement?,,3,N,integer,50,,N,C71148,POSITION,SEMI-FOWLERS;SEMI-RECUMBENT;SITTING;STANDING;SUPINE,Semi-Fowlers;Semi-Recumbent;Sitting;Standing;Supine,Single,,,EGPOS,EGPOS,
2025-12-31,C117779,QRSAG,CDASHIG,2-1,,EG,QRSAG_VERTICAL,Vertical,LOCAL READING,QRS Duration Aggregate (Vertical),QRSAG,EGORRES,C25330,"QRS Duration, Aggregate Result",,4,Y,integer,3,,N,,,,,,,,EGORRES;EGTEST;EGTESTCD,EGORRES when EGTESTCD = QRSAG,
2025-12-31,C117779,QRSAG,CDASHIG,2-1,,EG,QRSAG_VERTICAL,Vertical,LOCAL READING,QRS Duration Aggregate (Vertical),QRSAGU,EGORRESU,C42574,"QRS Duration, Aggregate Result Unit",,5,Y,text,50,,N,C71620,UNIT,ms;/s,msec;per sec,Single,,,EGORRESU;EGTEST;EGTESTCD,EGORRESU when EGTESTCD = QRSAG,
2025-12-31,C117783,QTAG,CDASHIG,2-1,,EG,QTAG_HORIZONTAL,Horizontal,LOCAL READING,QT Interval Aggregate (Horizontal),EGDAT,EGDAT,C82515,,Date of Assessment,1,N,date,10,,N,,,,,,,,EGDTC,EGDTC,
2025-12-31,C117783,QTAG,CDASHIG,2-1,,EG,QTAG_HORIZONTAL,Horizontal,LOCAL READING,QT Interval Aggregate (Horizontal),EGMETHOD,EGMETHOD,C82535,,Method,2,Y,text,50,,N,C71151,EGMETHOD,,,,12 LEAD STANDARD,C71102,EGMETHOD,EGMETHOD = 12 LEAD STANDARD when EGTESTCD = QTAG,
2025-12-31,C117783,QTAG,CDASHIG,2-1,,EG,QTAG_HORIZONTAL,Horizontal,LOCAL READING,QT Interval Aggregate (Horizontal),EGPOS,EGPOS,C62164,,Position,3,N,text,50,,N,C71148,POSITION,SEMI-FOWLERS;SEMI-RECUMBENT;SITTING;STANDING;SUPINE,Semi-Fowlers;Semi-Recumbent;Sitting;Standing;Supine,Single,,,EGPOS,EGPOS,
2025-12-31,C117783,QTAG,CDASHIG,2-1,,EG,QTAG_HORIZONTAL,Horizontal,LOCAL READING,QT Interval Aggregate (Horizontal),QTAG_EGORRES,EGORRES,C25330,,"QT Interval, Aggregate Result",4,Y,integer,3,,N,,,,,,,,EGORRES;EGTEST;EGTESTCD,EGORRES when EGTESTCD = QTAG,
2025-12-31,C117783,QTAG,CDASHIG,2-1,,EG,QTAG_HORIZONTAL,Horizontal,LOCAL READING,QT Interval Aggregate (Horizontal),QTAG_EGORRESU,EGORRESU,C42574,,Unit,5,Y,text,50,,N,C71620,UNIT,ms;/s,msec;per sec,Single,,,EGORRESU;EGTEST;EGTESTCD,EGORRESU when EGTESTCD = QTAG,
2025-12-31,C117783,QTAG,CDASHIG,2-1,,EG,QTAG_VERTICAL,Vertical,LOCAL READING,QT Interval Aggregate (Vertical),EGDAT,EGDAT,C82515,What was the date of assessment?,,1,N,date,10,,N,,,,,,,,EGDTC,EGDTC,
2025-12-31,C117783,QTAG,CDASHIG,2-1,,EG,QTAG_VERTICAL,Vertical,LOCAL READING,QT Interval Aggregate (Vertical),EGMETHOD,EGMETHOD,C82535,What was the method used for the ECG?,,2,Y,text,50,,N,C71151,EGMETHOD,,,,12 LEAD STANDARD,C71102,EGMETHOD,EGMETHOD = 12 LEAD STANDARD when EGTESTCD = QTAG,
2025-12-31,C117783,QTAG,CDASHIG,2-1,,EG,QTAG_VERTICAL,Vertical,LOCAL READING,QT Interval Aggregate (Vertical),EGPOS,EGPOS,C62164,What was the position of the subject during the ECG measurement?,,3,N,text,50,,N,C71148,POSITION,SEMI-FOWLERS;SEMI-RECUMBENT;SITTING;STANDING;SUPINE,Semi-Fowlers;Semi-Recumbent;Sitting;Standing;Supine,Single,,,EGPOS,EGPOS,
2025-12-31,C117783,QTAG,CDASHIG,2-1,,EG,QTAG_VERTICAL,Vertical,LOCAL READING,QT Interval Aggregate (Vertical),QTAG,EGORRES,C25330,"QT Interval, Aggregate Result",,4,Y,integer,3,,N,,,,,,,,EGORRES;EGTEST;EGTESTCD,EGORRES when EGTESTCD = QTAG,
2025-12-31,C117783,QTAG,CDASHIG,2-1,,EG,QTAG_VERTICAL,Vertical,LOCAL READING,QT Interval Aggregate (Vertical),QTAGU,EGORRESU,C42574,"QT Interval, Aggregate Result Unit",,5,Y,text,50,,N,C71620,UNIT,ms;/s,msec;per sec,Single,,,EGORRESU;EGTEST;EGTESTCD,EGORRESU when EGTESTCD = QTAG,
2025-12-31,C117784,QTCBAG,CDASHIG,2-1,,EG,QTCBAG_HORIZONTAL,Horizontal,LOCAL READING,QTCB Interval Aggregate (Horizontal),EGDAT,EGDAT,C82515,,Date of Assessment,1,N,date,10,,N,,,,,,,,EGDTC,EGDTC,
2025-12-31,C117784,QTCBAG,CDASHIG,2-1,,EG,QTCBAG_HORIZONTAL,Horizontal,LOCAL READING,QTCB Interval Aggregate (Horizontal),EGMETHOD,EGMETHOD,C82535,,Method,2,Y,text,50,,N,C71151,EGMETHOD,,,,12 LEAD STANDARD,C71102,EGMETHOD,EGMETHOD = 12 LEAD STANDARD when EGTESTCD = QTCBAG,
2025-12-31,C117784,QTCBAG,CDASHIG,2-1,,EG,QTCBAG_HORIZONTAL,Horizontal,LOCAL READING,QTCB Interval Aggregate (Horizontal),EGPOS,EGPOS,C62164,,Position,3,N,text,50,,N,C71148,POSITION,SEMI-FOWLERS;SEMI-RECUMBENT;SITTING;STANDING;SUPINE,Semi-Fowlers;Semi-Recumbent;Sitting;Standing;Supine,Single,,,EGPOS,EGPOS,
2025-12-31,C117784,QTCBAG,CDASHIG,2-1,,EG,QTCBAG_HORIZONTAL,Horizontal,LOCAL READING,QTCB Interval Aggregate (Horizontal),QTCBAG_EGORRES,EGORRES,C25330,,"QTcB Interval, Aggregate Result",4,Y,integer,3,,N,,,,,,,,EGORRES;EGTEST;EGTESTCD,EGORRES when EGTESTCD = QTCBAG,
2025-12-31,C117784,QTCBAG,CDASHIG,2-1,,EG,QTCBAG_HORIZONTAL,Horizontal,LOCAL READING,QTCB Interval Aggregate (Horizontal),QTCBAG_EGORRESU,EGORRESU,C42574,,Unit,5,Y,text,50,,N,C71620,UNIT,ms;/s,msec;per sec,Single,,,EGORRESU;EGTEST;EGTESTCD,EGORRESU when EGTESTCD = QTCBAG,
2025-12-31,C117784,QTCBAG,CDASHIG,2-1,,EG,QTCBAG_VERTICAL,Vertical,LOCAL READING,QTCB Interval Aggregate (Vertical),EGDAT,EGDAT,C82515,What was the date of assessment?,,1,N,date,10,,N,,,,,,,,EGDTC,EGDTC,
2025-12-31,C117784,QTCBAG,CDASHIG,2-1,,EG,QTCBAG_VERTICAL,Vertical,LOCAL READING,QTCB Interval Aggregate (Vertical),EGMETHOD,EGMETHOD,C82535,What was the method used for the ECG?,,2,Y,text,50,,N,C71151,EGMETHOD,,,,12 LEAD STANDARD,C71102,EGMETHOD,EGMETHOD = 12 LEAD STANDARD when EGTESTCD = QTCBAG,
2025-12-31,C117784,QTCBAG,CDASHIG,2-1,,EG,QTCBAG_VERTICAL,Vertical,LOCAL READING,QTCB Interval Aggregate (Vertical),EGPOS,EGPOS,C62164,What was the position of the subject during the ECG measurement?,,3,N,text,50,,N,C71148,POSITION,SEMI-FOWLERS;SEMI-RECUMBENT;SITTING;STANDING;SUPINE,Semi-Fowlers;Semi-Recumbent;Sitting;Standing;Supine,Single,,,EGPOS,EGPOS,
2025-12-31,C117784,QTCBAG,CDASHIG,2-1,,EG,QTCBAG_VERTICAL,Vertical,LOCAL READING,QTCB Interval Aggregate (Vertical),QTCBAG,EGORRES,C25330,"QTcB Interval, Aggregate Result",,4,Y,integer,3,,N,,,,,,,,EGORRES;EGTEST;EGTESTCD,EGORRES when EGTESTCD = QTCBAG,
2025-12-31,C117784,QTCBAG,CDASHIG,2-1,,EG,QTCBAG_VERTICAL,Vertical,LOCAL READING,QTCB Interval Aggregate (Vertical),QTCBAGU,EGORRESU,C42574,"QTcB Interval, Aggregate Result Unit",,5,Y,text,50,,N,C71620,UNIT,ms;/s,msec;per sec,Single,,,EGORRESU;EGTEST;EGTESTCD,EGORRESU when EGTESTCD = QTCBAG,
2025-12-31,C117786,QTCFAG,CDASHIG,2-1,,EG,QTCFAG_HORIZONTAL,Horizontal,LOCAL READING,QTCF Interval Aggregate (Horizontal),EGDAT,EGDAT,C82515,,Date of Assessment,1,N,date,10,,N,,,,,,,,EGDTC,EGDTC,
2025-12-31,C117786,QTCFAG,CDASHIG,2-1,,EG,QTCFAG_HORIZONTAL,Horizontal,LOCAL READING,QTCF Interval Aggregate (Horizontal),EGMETHOD,EGMETHOD,C82535,,Method,2,Y,text,50,,N,C71151,EGMETHOD,,,,12 LEAD STANDARD,C71102,EGMETHOD,EGMETHOD = 12 LEAD STANDARD when EGTESTCD = QTCFAG,
2025-12-31,C117786,QTCFAG,CDASHIG,2-1,,EG,QTCFAG_HORIZONTAL,Horizontal,LOCAL READING,QTCF Interval Aggregate (Horizontal),EGPOS,EGPOS,C62164,,Position,3,N,text,50,,N,C71148,POSITION,SEMI-FOWLERS;SEMI-RECUMBENT;SITTING;STANDING;SUPINE,Semi-Fowlers;Semi-Recumbent;Sitting;Standing;Supine,Single,,,EGPOS,EGPOS,
2025-12-31,C117786,QTCFAG,CDASHIG,2-1,,EG,QTCFAG_HORIZONTAL,Horizontal,LOCAL READING,QTCF Interval Aggregate (Horizontal),QTCFAG_EGORRES,EGORRES,C25330,,"QTcF Interval, Aggregate Result",4,Y,integer,3,,N,,,,,,,,EGORRES;EGTEST;EGTESTCD,EGORRES when EGTESTCD = QTCFAG,
2025-12-31,C117786,QTCFAG,CDASHIG,2-1,,EG,QTCFAG_HORIZONTAL,Horizontal,LOCAL READING,QTCF Interval Aggregate (Horizontal),QTCFAG_EGORRESU,EGORRESU,C42574,,Unit,5,Y,text,50,,N,C71620,UNIT,ms;/s,msec;per sec,Single,,,EGORRESU;EGTEST;EGTESTCD,EGORRESU when EGTESTCD = QTCFAG,
2025-12-31,C117786,QTCFAG,CDASHIG,2-1,,EG,QTCFAG_VERTICAL,Vertical,LOCAL READING,QTCF Interval Aggregate (Vertical),EGDAT,EGDAT,C82515,What was the date of assessment?,,1,N,date,10,,N,,,,,,,,EGDTC,EGDTC,
2025-12-31,C117786,QTCFAG,CDASHIG,2-1,,EG,QTCFAG_VERTICAL,Vertical,LOCAL READING,QTCF Interval Aggregate (Vertical),EGMETHOD,EGMETHOD,C82535,What was the method used for the ECG?,,2,Y,text,50,,N,C71151,EGMETHOD,,,,12 LEAD STANDARD,C71102,EGMETHOD,EGMETHOD = 12 LEAD STANDARD when EGTESTCD = QTCFAG,
2025-12-31,C117786,QTCFAG,CDASHIG,2-1,,EG,QTCFAG_VERTICAL,Vertical,LOCAL READING,QTCF Interval Aggregate (Vertical),EGPOS,EGPOS,C62164,What was the position of the subject during the ECG measurement?,,3,N,text,50,,N,C71148,POSITION,SEMI-FOWLERS;SEMI-RECUMBENT;SITTING;STANDING;SUPINE,Semi-Fowlers;Semi-Recumbent;Sitting;Standing;Supine,Single,,,EGPOS,EGPOS,
2025-12-31,C117786,QTCFAG,CDASHIG,2-1,,EG,QTCFAG_VERTICAL,Vertical,LOCAL READING,QTCF Interval Aggregate (Vertical),QTCFAG,EGORRES,C25330,"QTcF Interval, Aggregate Result",,4,Y,integer,3,,N,,,,,,,,EGORRES;EGTEST;EGTESTCD,EGORRES when EGTESTCD = QTCFAG,
2025-12-31,C117786,QTCFAG,CDASHIG,2-1,,EG,QTCFAG_VERTICAL,Vertical,LOCAL READING,QTCF Interval Aggregate (Vertical),QTCFAGU,EGORRESU,C42574,"QTcF Interval, Aggregate Result Unit",,5,Y,text,50,,N,C71620,UNIT,ms;/s,msec;per sec,Single,,,EGORRESU;EGTEST;EGTESTCD,EGORRESU when EGTESTCD = QTCFAG,
2025-12-31,C174285,QTCUNSAG,CDASHIG,2-1,,EG,QTCUNSAG_HORIZONTAL,Horizontal,LOCAL READING,QTC Aggregate Method Unspecified (Horizontal),EGDAT,EGDAT,C82515,,Date of Assessment,1,N,date,10,,N,,,,,,,,EGDTC,EGDTC,
2025-12-31,C174285,QTCUNSAG,CDASHIG,2-1,,EG,QTCUNSAG_HORIZONTAL,Horizontal,LOCAL READING,QTC Aggregate Method Unspecified (Horizontal),EGMETHOD,EGMETHOD,C82535,,Method,2,Y,text,50,,N,C71151,EGMETHOD,,,,12 LEAD STANDARD,C71102,EGMETHOD,EGMETHOD = 12 LEAD STANDARD when EGTESTCD = QTCUNSAG,
2025-12-31,C174285,QTCUNSAG,CDASHIG,2-1,,EG,QTCUNSAG_HORIZONTAL,Horizontal,LOCAL READING,QTC Aggregate Method Unspecified (Horizontal),EGPOS,EGPOS,C62164,,Position,3,N,text,50,,N,C71148,POSITION,SEMI-FOWLERS;SEMI-RECUMBENT;SITTING;STANDING;SUPINE,Semi-Fowlers;Semi-Recumbent;Sitting;Standing;Supine,Single,,,EGPOS,EGPOS,
2025-12-31,C174285,QTCUNSAG,CDASHIG,2-1,,EG,QTCUNSAG_HORIZONTAL,Horizontal,LOCAL READING,QTC Aggregate Method Unspecified (Horizontal),QTCUNSAG_EGORRES,EGORRES,C25330,,"QTc Corr Method Unspecified, Aggregate Result Unit",4,Y,integer,3,,N,,,,,,,,EGORRES;EGTEST;EGTESTCD,EGORRES when EGTESTCD = QTCUNSAG,
2025-12-31,C174285,QTCUNSAG,CDASHIG,2-1,,EG,QTCUNSAG_HORIZONTAL,Horizontal,LOCAL READING,QTC Aggregate Method Unspecified (Horizontal),QTCUNSAG_EGORRESU,EGORRESU,C42574,,Unit,5,Y,text,50,,N,C71620,UNIT,ms;/s,msec;per sec,Single,,,EGORRESU;EGTEST;EGTESTCD,EGORRESU when EGTESTCD = QTCUNSAG,
2025-12-31,C174285,QTCUNSAG,CDASHIG,2-1,,EG,QTCUNSAG_VERTICAL,Vertical,LOCAL READING,QTC Aggregate Method Unspecified (Vertical),EGDAT,EGDAT,C82515,What was the date of assessment?,,1,N,date,10,,N,,,,,,,,EGDTC,EGDTC,
2025-12-31,C174285,QTCUNSAG,CDASHIG,2-1,,EG,QTCUNSAG_VERTICAL,Vertical,LOCAL READING,QTC Aggregate Method Unspecified (Vertical),EGMETHOD,EGMETHOD,C82535,What was the method used for the ECG?,,2,Y,text,50,,N,C71151,EGMETHOD,,,,12 LEAD STANDARD,C71102,EGMETHOD,EGMETHOD = 12 LEAD STANDARD when EGTESTCD = QTCUNSAG,
2025-12-31,C174285,QTCUNSAG,CDASHIG,2-1,,EG,QTCUNSAG_VERTICAL,Vertical,LOCAL READING,QTC Aggregate Method Unspecified (Vertical),EGPOS,EGPOS,C62164,What was the position of the subject during the ECG measurement?,,3,N,text,50,,N,C71148,POSITION,SEMI-FOWLERS;SEMI-RECUMBENT;SITTING;STANDING;SUPINE,Semi-Fowlers;Semi-Recumbent;Sitting;Standing;Supine,Single,,,EGPOS,EGPOS,
2025-12-31,C174285,QTCUNSAG,CDASHIG,2-1,,EG,QTCUNSAG_VERTICAL,Vertical,LOCAL READING,QTC Aggregate Method Unspecified (Vertical),QTCUNSAG,EGORRES,C25330,"QTc Corr Method Unspecified, Aggregate Result",,4,Y,text,50,,N,,,,,,,,EGORRES;EGTEST;EGTESTCD,EGORRES when EGTESTCD = QTCUNSAG,
2025-12-31,C174285,QTCUNSAG,CDASHIG,2-1,,EG,QTCUNSAG_VERTICAL,Vertical,LOCAL READING,QTC Aggregate Method Unspecified (Vertical),QTCUNSAGU,EGORRESU,C42574,"QTc Corr Method Unspecified, Aggregate Result Unit",,5,Y,text,50,,N,C71620,UNIT,ms;/s,msec;per sec,Single,,,EGORRESU;EGTEST;EGTESTCD,EGORRESU when EGTESTCD = QTCUNSAG,
2025-12-31,C100762,,CDASHIG,2-3,,FT,ADASCOG,,,Alzheimer's Disease Assessment Scale-Cognitive CDISC Version Functional Test Performed,ADASCOG_FTCAT,FTCAT,C25372,,Category of Functional Test,1,N,text,100,,N,C115304,FTCAT,,,,ADAS-COG,C100191,FTCAT,FTCAT = ADAS-COG,
2025-12-31,C100762,,CDASHIG,2-3,,FT,ADASCOG,,,Alzheimer's Disease Assessment Scale-Cognitive CDISC Version Functional Test Performed,ADASCOG_FTPERF,FTPERF,C82525,Was the ADAS-COG Functional Test performed?,,2,N,text,1,,N,C66742,NY,N;Y,No;Yes,Single,,,FTSTAT,[NOT SUBMITTED]; FTSTAT = NOT DONE when FTTESTCD = FTALL,
2025-12-31,C100762,,CDASHIG,2-3,,FT,ADASCOG,,,Alzheimer's Disease Assessment Scale-Cognitive CDISC Version Functional Test Performed,ADASCOG_FTDAT,FTDTC,C82515,,Date of Assessment,3,Y,date,10,,N,,,,,,,,FTDTC,FTDTC,
2025-12-31,C100762,,CDASHIG,2-3,,FT,ADASCOG,,,Alzheimer's Disease Assessment Scale-Cognitive CDISC Version Functional Test Performed,ADASCOG_FTREASND,FTREASND,C82556,"If any item(s) are incomplete or not done, please specify reason:",,4,N,text,200,,N,,,Participant refused;Participant unable for physical reasons;Participant unable for cognitive reasons;Not done for reasons other than physical/cognitive,Participant refused;Participant unable for physical reasons;Participant unable for cognitive reasons;Not done for reasons other than physical/cognitive,Single,,,FTREASND,FTREASND,
2025-12-31,C100209,ADCCMD,CDASHIG,2-3,,FT,ADCCMD,,,CDISC ADAS-Cog - Commands Summary Score,ADCCMD_FTSCAT,FTSCAT,C25692,,Subcategory,1,N,text,100,,N,,,,,,Commands,,FTSCAT,FTSCAT = Commands,
2025-12-31,C100209,ADCCMD,CDASHIG,2-3,,FT,ADCCMD,,,CDISC ADAS-Cog - Commands Summary Score,ADCCMD_FTORRES,FTORRES,C91106,,COMMANDS,2,Y,text,5,2.0,N,,,all commands correct;1 command incorrect;2 commands incorrect;3 commands incorrect;4 commands incorrect;all 5 commands incorrect,all commands correct;1 command incorrect;2 commands incorrect;3 commands incorrect;4 commands incorrect;all 5 commands incorrect,Single,,,FTORRES;FTTESTCD;FTTEST,FTORRES when FTTESTCD = ADCCMD,
2025-12-31,C100209,ADCCMD,CDASHIG,2-3,,FT,ADCCMD,,,CDISC ADAS-Cog - Commands Summary Score,ADCCMD_FTREASND,FTREASND,C82556,"If any item(s) are incomplete or not done, please specify reason:",,3,N,text,200,,N,,,Participant refused;Participant unable for physical reasons;Participant unable for cognitive reasons;Not done for reasons other than physical/cognitive,Participant refused;Participant unable for physical reasons;Participant unable for cognitive reasons;Not done for reasons other than physical/cognitive,Single,,,FTREASND,FTREASND,
2025-12-31,C100278,ADCCMP,CDASHIG,2-3,,FT,ADCCMP,,,CDISC ADAS-Cog - Comprehension,ADCCMP_FTSCAT,FTSCAT,C25692,,Subcategory,1,N,text,100,,N,,,,,,Degree of Impairment,,FTSCAT,FTSCAT = Degree of Impairment,
2025-12-31,C100278,ADCCMP,CDASHIG,2-3,,FT,ADCCMP,,,CDISC ADAS-Cog - Comprehension,ADCCMP_FTORRES,FTORRES,C91106,,COMPREHENSION,2,Y,text,5,2.0,N,,,"No evidence of poor comprehension;Very mild - 1 or 2 instances of misunderstanding;Mild - 3-5 instances of misunderstanding;Moderate - requires several repetitions and rephrasings;Moderately severe - patient only occasionally responds correctly (i.e., yes/no questions);Severe - patient rarely responds to questions appropriately, not due to poverty of speech","No evidence of poor comprehension;Very mild - 1 or 2 instances of misunderstanding;Mild - 3-5 instances of misunderstanding;Moderate - requires several repetitions and rephrasings;Moderately severe - patient only occasionally responds correctly (i.e., yes/no questions);Severe - patient rarely responds to questions appropriately, not due to poverty of speech",Single,,,FTORRES;FTTESTCD;FTTEST,FTORRES when FTTESTCD = ADCCMP,
2025-12-31,C100279,ADCCON,CDASHIG,2-3,,FT,ADCCON,,,CDISC ADAS-Cog - Concentration/Distractibility,ADCCON_FTSCAT,FTSCAT,C25692,,Subcategory,1,N,text,100,,N,,,,,,Degree of Impairment,,FTSCAT,FTSCAT = Degree of Impairment,
2025-12-31,C100279,ADCCON,CDASHIG,2-3,,FT,ADCCON,,,CDISC ADAS-Cog - Concentration/Distractibility,ADCCON_FTORRES,FTORRES,C91106,,CONCENTRATION/DISTRACTABILITY,2,Y,text,5,2.0,N,,,"No evidence of poor concentration or distractibility;Very mild - one instance of poor concentration;Mild - 2-3 instances of poor concentration/distractibility, signs of restlessness and inattentiveness;Moderate - 4-5 instances during interview;Moderately severe - poor concentration/distractibility throughout much of interview;Severe - extreme difficulty in concentration and extremely distractible, unable to complete tasks","No evidence of poor concentration or distractibility;Very mild - one instance of poor concentration;Mild - 2-3 instances of poor concentration/distractibility, signs of restlessness and inattentiveness;Moderate - 4-5 instances during interview;Moderately severe - poor concentration/distractibility throughout much of interview;Severe - extreme difficulty in concentration and extremely distractible, unable to complete tasks",Single,,,FTORRES;FTTESTCD;FTTEST,FTORRES when FTTESTCD = ADCCON,
2025-12-31,C100279,ADCCON,CDASHIG,2-3,,FT,ADCCON,,,CDISC ADAS-Cog - Concentration/Distractibility,ADCCON_FTREASND,FTREASND,C82556,"If any item(s) are incomplete or not done, please specify reason:",,3,N,text,200,,N,,,Participant refused;Participant unable for physical reasons;Participant unable for cognitive reasons;Not done for reasons other than physical/cognitive,Participant refused;Participant unable for physical reasons;Participant unable for cognitive reasons;Not done for reasons other than physical/cognitive,Single,,,FTREASND,FTREASND,
2025-12-31,C100226,ADCCP,CDASHIG,2-3,,FT,ADCCP,,,CDISC ADAS-Cog - Constructional Praxis Summary Score,ADCCP_FTSCAT,FTSCAT,C25692,,Subcategory,1,N,text,100,,N,,,,,,Constructional Praxis,,FTSCAT,FTSCAT = Constructional Praxis,
2025-12-31,C100226,ADCCP,CDASHIG,2-3,,FT,ADCCP,,,CDISC ADAS-Cog - Constructional Praxis Summary Score,ADCCP_FTORRES,FTORRES,C91106,,CONSTRUCTIONAL PRAXIS,2,Y,text,5,2.0,N,,,"all 4 drawings correct;1 form drawn incorrectly;2 forms drawn incorrectly;3 forms drawn incorrectly;4 forms drawn incorrectly (but one or more side/section of at least one shape drawn);No figures drawn, no recognizable attempt at drawing any side/section of any figure","all 4 drawings correct;1 form drawn incorrectly;2 forms drawn incorrectly;3 forms drawn incorrectly;4 forms drawn incorrectly (but one or more side/section of at least one shape drawn);No figures drawn, no recognizable attempt at drawing any side/section of any figure",Single,,,FTORRES;FTTESTCD;FTTEST,FTORRES when FTTESTCD = ADCCP,
2025-12-31,C100226,ADCCP,CDASHIG,2-3,,FT,ADCCP,,,CDISC ADAS-Cog - Constructional Praxis Summary Score,ADCCP_FTREASND,FTREASND,C82556,"If any item(s) are incomplete or not done, please specify reason:",,3,N,text,200,,N,,,Participant refused;Participant unable for physical reasons;Participant unable for cognitive reasons;Not done for reasons other than physical/cognitive,Participant refused;Participant unable for physical reasons;Participant unable for cognitive reasons;Not done for reasons other than physical/cognitive,Single,,,FTREASND,FTREASND,
2025-12-31,C100277,ADCDIF,CDASHIG,2-3,,FT,ADCDIF,,,CDISC ADAS-Cog - Word Difficulty in Spontaneous Speech,ADCDIF_FTSCAT,FTSCAT,C25692,,Subcategory,1,N,text,100,,N,,,,,,Degree of Impairment,,FTSCAT,FTSCAT = Degree of Impairment,
2025-12-31,C100277,ADCDIF,CDASHIG,2-3,,FT,ADCDIF,,,CDISC ADAS-Cog - Word Difficulty in Spontaneous Speech,ADCDIF_FTORRES,FTORRES,C91106,,WORD FINDING DIFFICULTY IN SPONTANEOUS SPEECH,2,Y,text,5,2.0,N,,,"No evidence of word finding difficulty in spontaneous speech;Very mild - 1 or 2 instances, not clinically significant;Mild - noticeable circumlocution or synonym substitution;Moderate - loss of words without compensation on occasion;Moderately severe - frequent loss of words without compensation;Severe - nearly total loss of content of words, speech sounds empty, 1-2 word utterances","No evidence of word finding difficulty in spontaneous speech;Very mild - 1 or 2 instances, not clinically significant;Mild - noticeable circumlocution or synonym substitution;Moderate - loss of words without compensation on occasion;Moderately severe - frequent loss of words without compensation;Severe - nearly total loss of content of words, speech sounds empty, 1-2 word utterances",Single,,,FTORRES;FTTESTCD;FTTEST,FTORRES when FTTESTCD = ADCDIF,
2025-12-31,C100277,ADCDIF,CDASHIG,2-3,,FT,ADCDIF,,,CDISC ADAS-Cog - Word Difficulty in Spontaneous Speech,ADCDIF_FTREASND,FTREASND,C82556,"If any item(s) are incomplete or not done, please specify reason:",,3,N,text,200,,N,,,Participant refused;Participant unable for physical reasons;Participant unable for cognitive reasons;Not done for reasons other than physical/cognitive,Participant refused;Participant unable for physical reasons;Participant unable for cognitive reasons;Not done for reasons other than physical/cognitive,Single,,,FTREASND,FTREASND,
2025-12-31,C100215,ADCDRL,CDASHIG,2-3,,FT,ADCDRL,,,CDISC ADAS-Cog - Delayed Word Recall Summary Score,ADCDRL_FTSCAT,FTSCAT,C25692,,Subcategory,1,N,text,100,,N,,,,,,Delayed Word Recall,,FTSCAT,FTSCAT = Delayed Word Recall,
2025-12-31,C100215,ADCDRL,CDASHIG,2-3,,FT,ADCDRL,,,CDISC ADAS-Cog - Delayed Word Recall Summary Score,ADCDRL_FTORRES,FTORRES,C91106,,DELAYED WORD RECALL,2,Y,integer,2,,N,,,0;1;2;3;4;5;6;7;8;9;10,0;1;2;3;4;5;6;7;8;9;10,Single,,,FTORRES;FTTESTCD;FTTEST,FTORRES when FTTESTCD = ADCDRL,
2025-12-31,C100215,ADCDRL,CDASHIG,2-3,,FT,ADCDRL,,,CDISC ADAS-Cog - Delayed Word Recall Summary Score,ADCDRL_FTREASND,FTREASND,C82556,"If any item(s) are incomplete or not done, please specify reason:",,3,N,text,200,,N,,,Participant refused;Participant unable for physical reasons;Participant unable for cognitive reasons;Not done for reasons other than physical/cognitive,Participant refused;Participant unable for physical reasons;Participant unable for cognitive reasons;Not done for reasons other than physical/cognitive,Single,,,FTREASND,FTREASND,
2025-12-31,C100232,ADCIP,CDASHIG,2-3,,FT,ADCIP,,,CDISC ADAS-Cog - Ideational Praxis Summary Score,ADCIP_FTSCAT,FTSCAT,C25692,,Subcategory,1,N,text,100,,N,,,,,,Ideational Praxis,,FTSCAT,FTSCAT = Ideational Praxis,
2025-12-31,C100232,ADCIP,CDASHIG,2-3,,FT,ADCIP,,,CDISC ADAS-Cog - Ideational Praxis Summary Score,ADCIP_FTORRES,FTORRES,C91106,,IDEATIONAL PRAXIS,2,Y,text,5,2.0,N,,,all components performed correctly;failure to perform 1 component;failure to perform 2 components;failure to perform 3 components;failure to perform 4 components;failure to perform 5 components,all components performed correctly;failure to perform 1 component;failure to perform 2 components;failure to perform 3 components;failure to perform 4 components;failure to perform 5 components,Single,,,FTORRES;FTTESTCD;FTTEST,FTORRES when FTTESTCD = ADCIP,
2025-12-31,C100232,ADCIP,CDASHIG,2-3,,FT,ADCIP,,,CDISC ADAS-Cog - Ideational Praxis Summary Score,ADCIP_FTREASND,FTREASND,C82556,"If any item(s) are incomplete or not done, please specify reason:",,3,N,text,200,,N,,,Participant refused;Participant unable for physical reasons;Participant unable for cognitive reasons;Not done for reasons other than physical/cognitive,Participant refused;Participant unable for physical reasons;Participant unable for cognitive reasons;Not done for reasons other than physical/cognitive,Single,,,FTREASND,FTREASND,
2025-12-31,C100284,ADCMZ,CDASHIG,2-3,,FT,ADCMZ,,,CDISC ADAS-Cog - Executive Function Maze Summary Score,ADCMZ_FTSCAT,FTSCAT,C25692,,Subcategory,1,N,text,100,,N,,,,,,Executive Function Maze,,FTSCAT,FTSCAT = Executive Function Maze,
2025-12-31,C100284,ADCMZ,CDASHIG,2-3,,FT,ADCMZ,,,CDISC ADAS-Cog - Executive Function Maze Summary Score,ADCMZ_FTORRES,FTORRES,C91106,,EXECUTIVE FUNCTION SUMMARY,2,Y,integer,3,,N,,,,,,,,FTORRES;FTTESTCD;FTTEST,FTORRES when FTTESTCD = ADCMZ,
2025-12-31,C100284,ADCMZ,CDASHIG,2-3,,FT,ADCMZ,,,CDISC ADAS-Cog - Executive Function Maze Summary Score,ADCMZ_FTREASND,FTREASND,C82556,"If any item(s) are incomplete or not done, please specify reason:",,3,N,text,200,,N,,,Participant refused;Participant unable for physical reasons;Participant unable for cognitive reasons;Not done for reasons other than physical/cognitive,Participant refused;Participant unable for physical reasons;Participant unable for cognitive reasons;Not done for reasons other than physical/cognitive,Single,,,FTREASND,FTREASND,
2025-12-31,C100285,ADCMZ01,CDASHIG,2-3,,FT,ADCMZ01,,,CDISC ADAS-Cog - Executive Function Maze: Errors,ADCMZ01_FTSCAT,FTSCAT,C25692,,Subcategory,1,N,text,100,,N,,,,,,Executive Function Maze,,FTSCAT,FTSCAT = Executive Function Maze,
2025-12-31,C100285,ADCMZ01,CDASHIG,2-3,,FT,ADCMZ01,,,CDISC ADAS-Cog - Executive Function Maze: Errors,ADCMZ01_FTORRES,FTORRES,C91106,,EXECUTIVE FUNCTION: NUMBER ERRORS,2,Y,integer,3,,N,,,0;1;2,0;1;2,Single,,,FTORRES;FTTESTCD;FTTEST,FTORRES when FTTESTCD = ADCMZ01,
2025-12-31,C100285,ADCMZ01,CDASHIG,2-3,,FT,ADCMZ01,,,CDISC ADAS-Cog - Executive Function Maze: Errors,ADCMZ01_FTREASND,FTREASND,C82556,"If any item(s) are incomplete or not done, please specify reason:",,3,N,text,200,,N,,,Participant refused;Participant unable for physical reasons;Participant unable for cognitive reasons;Not done for reasons other than physical/cognitive,Participant refused;Participant unable for physical reasons;Participant unable for cognitive reasons;Not done for reasons other than physical/cognitive,Single,,,FTREASND,FTREASND,
2025-12-31,C100286,ADCMZ02,CDASHIG,2-3,,FT,ADCMZ02,,,CDISC ADAS-Cog - Executive Function Maze: Time,ADCMZ02_FTSCAT,FTSCAT,C25692,,Subcategory,1,N,text,100,,N,,,,,,Executive Function Maze,,FTSCAT,FTSCAT = Executive Function Maze,
2025-12-31,C100286,ADCMZ02,CDASHIG,2-3,,FT,ADCMZ02,,,CDISC ADAS-Cog - Executive Function Maze: Time,ADCMZ02_FTORRES,FTORRES,C91106,,EXECUTIVE FUNCTION: TIME,2,Y,integer,3,,N,,,,,,,,FTORRES;FTTESTCD;FTTEST,FTORRES when FTTESTCD = ADCMZ02,
2025-12-31,C100286,ADCMZ02,CDASHIG,2-3,,FT,ADCMZ02,,,CDISC ADAS-Cog - Executive Function Maze: Time,ADCMZ02_FTORRESU,FTORRESU,C42574,,Unit,3,Y,text,5,,N,,,,,,s,C42535,FTORRESU;FTTESTCD;FTTEST,FTORRESU when FTTESTCD = ADCMZ02,
2025-12-31,C100286,ADCMZ02,CDASHIG,2-3,,FT,ADCMZ02,,,CDISC ADAS-Cog - Executive Function Maze: Time,ADCMZ02_FTREASND,FTREASND,C82556,"If any item(s) are incomplete or not done, please specify reason:",,4,N,text,200,,N,,,Participant refused;Participant unable for physical reasons;Participant unable for cognitive reasons;Not done for reasons other than physical/cognitive,Participant refused;Participant unable for physical reasons;Participant unable for cognitive reasons;Not done for reasons other than physical/cognitive,Single,,,FTREASND,FTREASND,
2025-12-31,C100280,ADCNC,CDASHIG,2-3,,FT,ADCNC,,,CDISC ADAS-Cog - Number Cancellation Summary Score,ADCNC_FTSCAT,FTSCAT,C25692,,Subcategory,1,N,text,100,,N,,,,,,Number Cancellation,,FTSCAT,FTSCAT = Number Cancellation,
2025-12-31,C100280,ADCNC,CDASHIG,2-3,,FT,ADCNC,,,CDISC ADAS-Cog - Number Cancellation Summary Score,ADCNC_FTORRES,FTORRES,C91106,,NUMBER CANCELLATION SUMMARY,2,Y,integer,3,,N,,,,,,,,FTORRES;FTTESTCD;FTTEST,FTORRES when FTTESTCD = ADCNC,
2025-12-31,C100280,ADCNC,CDASHIG,2-3,,FT,ADCNC,,,CDISC ADAS-Cog - Number Cancellation Summary Score,ADCNC_FTREASND,FTREASND,C82556,"If any item(s) are incomplete or not done, please specify reason:",,3,N,text,200,,N,,,Participant refused;Participant unable for physical reasons;Participant unable for cognitive reasons;Not done for reasons other than physical/cognitive,Participant refused;Participant unable for physical reasons;Participant unable for cognitive reasons;Not done for reasons other than physical/cognitive,Single,,,FTREASND,FTREASND,
2025-12-31,C100281,ADCNC01,CDASHIG,2-3,,FT,ADCNC01,,,CDISC ADAS-Cog - Number Cancellation: Correct,ADCNC01_FTSCAT,FTSCAT,C25692,,Subcategory,1,N,text,100,,N,,,,,,Number Cancellation,,FTSCAT,FTSCAT = Number Cancellation,
2025-12-31,C100281,ADCNC01,CDASHIG,2-3,,FT,ADCNC01,,,CDISC ADAS-Cog - Number Cancellation: Correct,ADCNC01_FTORRES,FTORRES,C91106,,NUMBER CANCELLATION: CORRECT,2,Y,integer,3,,N,,,,,,,,FTORRES;FTTESTCD;FTTEST,FTORRES when FTTESTCD = ADCNC01,
2025-12-31,C100281,ADCNC01,CDASHIG,2-3,,FT,ADCNC01,,,CDISC ADAS-Cog - Number Cancellation: Correct,ADCNC01_FTREASND,FTREASND,C82556,"If any item(s) are incomplete or not done, please specify reason:",,3,N,text,200,,N,,,Participant refused;Participant unable for physical reasons;Participant unable for cognitive reasons;Not done for reasons other than physical/cognitive,Participant refused;Participant unable for physical reasons;Participant unable for cognitive reasons;Not done for reasons other than physical/cognitive,Single,,,FTREASND,FTREASND,
2025-12-31,C100282,ADCNC02,CDASHIG,2-3,,FT,ADCNC02,,,CDISC ADAS-Cog - Number Cancellation: Errors,ADCNC02_FTSCAT,FTSCAT,C25692,,Subcategory,1,N,text,100,,N,,,,,,Number Cancellation,,FTSCAT,FTSCAT = Number Cancellation,
2025-12-31,C100282,ADCNC02,CDASHIG,2-3,,FT,ADCNC02,,,CDISC ADAS-Cog - Number Cancellation: Errors,ADCNC02_FTORRES,FTORRES,C91106,,NUMBER CANCELLATION: ERRORS,2,Y,integer,3,,N,,,,,,,,FTORRES;FTTESTCD;FTTEST,FTORRES when FTTESTCD = ADCNC02,
2025-12-31,C100282,ADCNC02,CDASHIG,2-3,,FT,ADCNC02,,,CDISC ADAS-Cog - Number Cancellation: Errors,ADCNC02_FTREASND,FTREASND,C82556,"If any item(s) are incomplete or not done, please specify reason:",,3,N,text,200,,N,,,Participant refused;Participant unable for physical reasons;Participant unable for cognitive reasons;Not done for reasons other than physical/cognitive,Participant refused;Participant unable for physical reasons;Participant unable for cognitive reasons;Not done for reasons other than physical/cognitive,Single,,,FTREASND,FTREASND,
2025-12-31,C100283,ADCNC03,CDASHIG,2-3,,FT,ADCNC03,,,CDISC ADAS-Cog - Number Cancellation: Remind,ADCNC03_FTSCAT,FTSCAT,C25692,,Subcategory,1,N,text,100,,N,,,,,,Number Cancellation,,FTSCAT,FTSCAT = Number Cancellation,
2025-12-31,C100283,ADCNC03,CDASHIG,2-3,,FT,ADCNC03,,,CDISC ADAS-Cog - Number Cancellation: Remind,ADCNC03_FTORRES,FTORRES,C91106,,NUMBER CANCELLATION: REMIND,2,Y,integer,3,,N,,,,,,,,FTORRES;FTTESTCD;FTTEST,FTORRES when FTTESTCD = ADCNC03,
2025-12-31,C100283,ADCNC03,CDASHIG,2-3,,FT,ADCNC03,,,CDISC ADAS-Cog - Number Cancellation: Remind,ADCNC03_FTREASND,FTREASND,C82556,"If any item(s) are incomplete or not done, please specify reason:",,3,N,text,200,,N,,,Participant refused;Participant unable for physical reasons;Participant unable for cognitive reasons;Not done for reasons other than physical/cognitive,Participant refused;Participant unable for physical reasons;Participant unable for cognitive reasons;Not done for reasons other than physical/cognitive,Single,,,FTREASND,FTREASND,
2025-12-31,C100191,ADCOF,CDASHIG,2-3,,FT,ADCOF,,,CDISC ADAS-Cog - Naming Objects and Fingers Summary Score,ADCOF_FTSCAT,FTSCAT,C25692,,Subcategory,1,N,text,100,,N,,,,,,Naming Objects and Fingers,,FTSCAT,FTSCAT = Naming Objects and Fingers,
2025-12-31,C100191,ADCOF,CDASHIG,2-3,,FT,ADCOF,,,CDISC ADAS-Cog - Naming Objects and Fingers Summary Score,ADCOF_FTORRES,FTORRES,C91106,,NAMING OBJECTS AND FINGERS,2,Y,text,5,2.0,N,,,0-2 items (objects and fingers) named incorrectly;3-5 items (objects and fingers) named incorrectly;6-8 items (objects and fingers) named incorrectly;9-11 items (objects and fingers) named incorrectly;12-14 items (objects and fingers) named incorrectly;15-17 items (objects and fingers) named incorrectly,0-2 items (objects and fingers) named incorrectly;3-5 items (objects and fingers) named incorrectly;6-8 items (objects and fingers) named incorrectly;9-11 items (objects and fingers) named incorrectly;12-14 items (objects and fingers) named incorrectly;15-17 items (objects and fingers) named incorrectly,Single,,,FTORRES;FTTESTCD;FTTEST,FTORRES when FTTESTCD = ADCOF,
2025-12-31,C100191,ADCOF,CDASHIG,2-3,,FT,ADCOF,,,CDISC ADAS-Cog - Naming Objects and Fingers Summary Score,ADCOF_FTREASND,FTREASND,C82556,"If any item(s) are incomplete or not done, please specify reason:",,3,N,text,200,,N,,,Participant refused;Participant unable for physical reasons;Participant unable for cognitive reasons;Not done for reasons other than physical/cognitive,Participant refused;Participant unable for physical reasons;Participant unable for cognitive reasons;Not done for reasons other than physical/cognitive,Single,,,FTREASND,FTREASND,
2025-12-31,C100238,ADCOR,CDASHIG,2-3,,FT,ADCOR,,,CDISC ADAS-Cog - Orientation Summary Score,ADCOR_FTSCAT,FTSCAT,C25692,,Subcategory,1,N,text,100,,N,,,,,,Orientation,,FTSCAT,FTSCAT = Orientation,
2025-12-31,C100238,ADCOR,CDASHIG,2-3,,FT,ADCOR,,,CDISC ADAS-Cog - Orientation Summary Score,ADCOR_FTORRES,FTORRES,C91106,,ORIENTATION,2,Y,integer,2,,N,,,0;1;2;3;4;5;6;7;8,0;1;2;3;4;5;6;7;8,Single,,,FTORRES;FTTESTCD;FTTEST,FTORRES when FTTESTCD = ADCOR,
2025-12-31,C100238,ADCOR,CDASHIG,2-3,,FT,ADCOR,,,CDISC ADAS-Cog - Orientation Summary Score,ADCOR_FTREASND,FTREASND,C82556,"If any item(s) are incomplete or not done, please specify reason:",,3,N,text,200,,N,,,Participant refused;Participant unable for physical reasons;Participant unable for cognitive reasons;Not done for reasons other than physical/cognitive,Participant refused;Participant unable for physical reasons;Participant unable for cognitive reasons;Not done for reasons other than physical/cognitive,Single,,,FTREASND,FTREASND,
2025-12-31,C100247,ADCRG,CDASHIG,2-3,,FT,ADCRG,,,CDISC ADAS-Cog - Word Recognition Summary Score,ADCRG_FTSCAT,FTSCAT,C25692,,Subcategory,1,N,text,100,,N,,,,,,Word Recognition,,FTSCAT,FTSCAT = Word Recognition,
2025-12-31,C100247,ADCRG,CDASHIG,2-3,,FT,ADCRG,,,CDISC ADAS-Cog - Word Recognition Summary Score,ADCRG_FTORRES,FTORRES,C91106,,WORD RECOGNITION SUMMARY,2,Y,decimal,5,2.0,N,,,0;0.33;0.67;1;1.33;1.67;2;2.33;2.67;3;3.33;3.67;4;4.33;4.67;5;5.33;5.67;6;6.33;6.67;7;7.33;7.67;8;8.33;8.67;9;9.33;9.67;10;10.33;10.67;11;11.33;11.67;12,0;0.33;0.67;1;1.33;1.67;2;2.33;2.67;3;3.33;3.67;4;4.33;4.67;5;5.33;5.67;6;6.33;6.67;7;7.33;7.67;8;8.33;8.67;9;9.33;9.67;10;10.33;10.67;11;11.33;11.67;12,Single,,,FTORRES;FTTESTCD;FTTEST,FTORRES when FTTESTCD = ADCRG,
2025-12-31,C100247,ADCRG,CDASHIG,2-3,,FT,ADCRG,,,CDISC ADAS-Cog - Word Recognition Summary Score,ADCRG_FTREASND,FTREASND,C82556,"If any item(s) are incomplete or not done, please specify reason:",,3,N,text,200,,N,,,Participant refused;Participant unable for physical reasons;Participant unable for cognitive reasons;Not done for reasons other than physical/cognitive,Participant refused;Participant unable for physical reasons;Participant unable for cognitive reasons;Not done for reasons other than physical/cognitive,Single,,,FTREASND,FTREASND,
2025-12-31,C100248,ADCRGT01,CDASHIG,2-3,,FT,ADCRGT01,,,CDISC ADAS-Cog - Word Recognition Trial 1 Subscore,ADCRGT01_FTSCAT,FTSCAT,C25692,,Subcategory,1,N,text,100,,N,,,,,,Word Recognition,,FTSCAT,FTSCAT = Word Recognition,
2025-12-31,C100248,ADCRGT01,CDASHIG,2-3,,FT,ADCRGT01,,,CDISC ADAS-Cog - Word Recognition Trial 1 Subscore,ADCRGT01_FTTPT,FTTPT,,,Timepoint,2,N,text,100,,Y,,,,,,Trial 1,,FTTPT,FTTPT = Trial 1,
2025-12-31,C100248,ADCRGT01,CDASHIG,2-3,,FT,ADCRGT01,,,CDISC ADAS-Cog - Word Recognition Trial 1 Subscore,ADCRGT01_FTORRES,FTORRES,C91106,,WORD RECOGNITION / TRIAL 1,3,Y,integer,2,,N,,,,,,,,FTORRES;FTTESTCD;FTTEST,FTORRES when FTTESTCD = ADCRGT01,
2025-12-31,C100248,ADCRGT01,CDASHIG,2-3,,FT,ADCRGT01,,,CDISC ADAS-Cog - Word Recognition Trial 1 Subscore,ADCRGT01_FTREASND,FTREASND,C82556,"If any item(s) are incomplete or not done, please specify reason:",,4,N,text,200,,N,,,Participant refused;Participant unable for physical reasons;Participant unable for cognitive reasons;Not done for reasons other than physical/cognitive,Participant refused;Participant unable for physical reasons;Participant unable for cognitive reasons;Not done for reasons other than physical/cognitive,Single,,,FTREASND,FTREASND,
2025-12-31,C100249,ADCRGT02,CDASHIG,2-3,,FT,ADCRGT02,,,CDISC ADAS-Cog - Word Recognition Trial 2 Subscore,ADCRGT02_FTSCAT,FTSCAT,C25692,,Subcategory,1,N,text,100,,N,,,,,,Word Recognition,,FTSCAT,FTSCAT = Word Recognition,
2025-12-31,C100249,ADCRGT02,CDASHIG,2-3,,FT,ADCRGT02,,,CDISC ADAS-Cog - Word Recognition Trial 2 Subscore,ADCRGT02_FTTPT,FTTPT,,,Timepoint,2,N,text,100,,Y,,,,,,Trial 2,,FTTPT,FTTPT = Trial 2,
2025-12-31,C100249,ADCRGT02,CDASHIG,2-3,,FT,ADCRGT02,,,CDISC ADAS-Cog - Word Recognition Trial 2 Subscore,ADCRGT02_FTORRES,FTORRES,C91106,,WORD RECOGNITION / TRIAL 2,3,Y,integer,2,,N,,,,,,,,FTORRES;FTTESTCD;FTTEST,FTORRES when FTTESTCD = ADCRGT02,
2025-12-31,C100249,ADCRGT02,CDASHIG,2-3,,FT,ADCRGT02,,,CDISC ADAS-Cog - Word Recognition Trial 2 Subscore,ADCRGT02_FTREASND,FTREASND,C82556,"If any item(s) are incomplete or not done, please specify reason:",,4,N,text,200,,N,,,Participant refused;Participant unable for physical reasons;Participant unable for cognitive reasons;Not done for reasons other than physical/cognitive,Participant refused;Participant unable for physical reasons;Participant unable for cognitive reasons;Not done for reasons other than physical/cognitive,Single,,,FTREASND,FTREASND,
2025-12-31,C100250,ADCRGT03,CDASHIG,2-3,,FT,ADCRGT03,,,CDISC ADAS-Cog - Word Recognition Trial 3 Subscore,ADCRGT03_FTSCAT,FTSCAT,C25692,,Subcategory,1,N,text,100,,N,,,,,,Word Recognition,,FTSCAT,FTSCAT = Word Recognition,
2025-12-31,C100250,ADCRGT03,CDASHIG,2-3,,FT,ADCRGT03,,,CDISC ADAS-Cog - Word Recognition Trial 3 Subscore,ADCRGT03_FTTPT,FTTPT,,,Timepoint,2,N,text,100,,Y,,,,,,Trial 3,,FTTPT,FTTPT = Trial 3,
2025-12-31,C100250,ADCRGT03,CDASHIG,2-3,,FT,ADCRGT03,,,CDISC ADAS-Cog - Word Recognition Trial 3 Subscore,ADCRGT03_FTORRES,FTORRES,C91106,,WORD RECOGNITION / TRIAL 3,3,Y,integer,2,,N,,,,,,,,FTORRES;FTTESTCD;FTTEST,FTORRES when FTTESTCD = ADCRGT03,
2025-12-31,C100250,ADCRGT03,CDASHIG,2-3,,FT,ADCRGT03,,,CDISC ADAS-Cog - Word Recognition Trial 3 Subscore,ADCRGT03_FTREASND,FTREASND,C82556,"If any item(s) are incomplete or not done, please specify reason:",,4,N,text,200,,N,,,Participant refused;Participant unable for physical reasons;Participant unable for cognitive reasons;Not done for reasons other than physical/cognitive,Participant refused;Participant unable for physical reasons;Participant unable for cognitive reasons;Not done for reasons other than physical/cognitive,Single,,,FTREASND,FTREASND,
2025-12-31,C100275,ADCRI,CDASHIG,2-3,,FT,ADCRI,,,CDISC ADAS-Cog - Remembering Test Instructions,ADCRI_FTSCAT,FTSCAT,C25692,,Subcategory,1,N,text,100,,N,,,,,,Degree of Impairment,,FTSCAT,FTSCAT = Degree of Impairment,
2025-12-31,C100275,ADCRI,CDASHIG,2-3,,FT,ADCRI,,,CDISC ADAS-Cog - Remembering Test Instructions,ADCRI_FTORRES,FTORRES,C91106,,REMEMBERING TEST INSTRUCTIONS,2,Y,text,5,2.0,N,,,Subject never needs extra reminders of instructions;Very mild - forgets once;Mild - must be reminded 2 times;Moderate - must be reminded 3 or 4 times;Moderately severe - must be reminded 5 or 6 times;Severe - must be reminded 7 or more times,Subject never needs extra reminders of instructions;Very mild - forgets once;Mild - must be reminded 2 times;Moderate - must be reminded 3 or 4 times;Moderately severe - must be reminded 5 or 6 times;Severe - must be reminded 7 or more times,Single,,,FTORRES;FTTESTCD;FTTEST,FTORRES when FTTESTCD = ADCRI,
2025-12-31,C100275,ADCRI,CDASHIG,2-3,,FT,ADCRI,,,CDISC ADAS-Cog - Remembering Test Instructions,ADCRI_FTREASND,FTREASND,C82556,"If any item(s) are incomplete or not done, please specify reason:",,3,N,text,200,,N,,,Participant refused;Participant unable for physical reasons;Participant unable for cognitive reasons;Not done for reasons other than physical/cognitive,Participant refused;Participant unable for physical reasons;Participant unable for cognitive reasons;Not done for reasons other than physical/cognitive,Single,,,FTREASND,FTREASND,
2025-12-31,C100177,ADCRL,CDASHIG,2-3,,FT,ADCRL,,,CDISC ADAS-Cog - Word Recall Average Score,ADCRL_FTSCAT,FTSCAT,C25692,,Subcategory,1,N,text,100,,N,,,,,,Word Recall,,FTSCAT,FTSCAT = Word Recall,
2025-12-31,C100177,ADCRL,CDASHIG,2-3,,FT,ADCRL,,,CDISC ADAS-Cog - Word Recall Average Score,ADCRL_FTORRES,FTORRES,C91106,,WORD RECALL SUMMARY,2,Y,decimal,5,2.0,N,,,0;0.33;0.67;1;1.33;1.67;2;2.33;2.67;3;3.33;3.67;4;4.33;4.67;5;5.33;5.67;6;6.33;6.67;7;7.33;7.67;8;8.33;8.67;9;9.33;9.67;10,0;0.33;0.67;1;1.33;1.67;2;2.33;2.67;3;3.33;3.67;4;4.33;4.67;5;5.33;5.67;6;6.33;6.67;7;7.33;7.67;8;8.33;8.67;9;9.33;9.67;10,Single,,,FTORRES;FTTESTCD;FTTEST,FTORRES when FTTESTCD = ADCRL,
2025-12-31,C100177,ADCRL,CDASHIG,2-3,,FT,ADCRL,,,CDISC ADAS-Cog - Word Recall Average Score,ADCRL_FTREASND,FTREASND,C82556,"If any item(s) are incomplete or not done, please specify reason:",,3,N,text,200,,N,,,Participant refused;Participant unable for physical reasons;Participant unable for cognitive reasons;Not done for reasons other than physical/cognitive,Participant refused;Participant unable for physical reasons;Participant unable for cognitive reasons;Not done for reasons other than physical/cognitive,Single,,,FTREASND,FTREASND,
2025-12-31,C100178,ADCRLT01,CDASHIG,2-3,,FT,ADCRLT01,,,CDISC ADAS-Cog - Word Recall Trial 1 Subscore,ADCRLT01_FTSCAT,FTSCAT,C25692,,Subcategory,1,N,text,100,,N,,,,,,Word Recall,,FTSCAT,FTSCAT = Word Recall,
2025-12-31,C100178,ADCRLT01,CDASHIG,2-3,,FT,ADCRLT01,,,CDISC ADAS-Cog - Word Recall Trial 1 Subscore,ADCRLT01_FTTPT,FTTPT,,,Timepoint,2,N,text,100,,Y,,,,,,Trial 1,,FTTPT,FTTPT = Trial 1,
2025-12-31,C100178,ADCRLT01,CDASHIG,2-3,,FT,ADCRLT01,,,CDISC ADAS-Cog - Word Recall Trial 1 Subscore,ADCRLT01_FTORRES,FTORRES,C91106,,WORD RECALL / TRIAL 1,3,Y,integer,3,,N,,,,,,,,FTORRES;FTTESTCD;FTTEST,FTORRES when FTTESTCD = ADCRLT01,
2025-12-31,C100178,ADCRLT01,CDASHIG,2-3,,FT,ADCRLT01,,,CDISC ADAS-Cog - Word Recall Trial 1 Subscore,ADCRLT01_FTREASND,FTREASND,C82556,"If any item(s) are incomplete or not done, please specify reason:",,4,N,text,200,,N,,,Participant refused;Participant unable for physical reasons;Participant unable for cognitive reasons;Not done for reasons other than physical/cognitive,Participant refused;Participant unable for physical reasons;Participant unable for cognitive reasons;Not done for reasons other than physical/cognitive,Single,,,FTREASND,FTREASND,
2025-12-31,C100179,ADCRLT02,CDASHIG,2-3,,FT,ADCRLT02,,,CDISC ADAS-Cog - Word Recall Trial 2 Subscore,ADCRLT02_FTSCAT,FTSCAT,C25692,,Subcategory,1,N,text,100,,N,,,,,,Word Recall,,FTSCAT,FTSCAT = Word Recall,
2025-12-31,C100179,ADCRLT02,CDASHIG,2-3,,FT,ADCRLT02,,,CDISC ADAS-Cog - Word Recall Trial 2 Subscore,ADCRLT02_FTTPT,FTTPT,,,Timepoint,2,N,text,100,,Y,,,,,,Trial 2,,FTTPT,FTTPT = Trial 2,
2025-12-31,C100179,ADCRLT02,CDASHIG,2-3,,FT,ADCRLT02,,,CDISC ADAS-Cog - Word Recall Trial 2 Subscore,ADCRLT02_FTORRES,FTORRES,C91106,,WORD RECALL / TRIAL 2,3,Y,integer,3,,N,,,,,,,,FTORRES;FTTESTCD;FTTEST,FTORRES when FTTESTCD = ADCRLT02,
2025-12-31,C100179,ADCRLT02,CDASHIG,2-3,,FT,ADCRLT02,,,CDISC ADAS-Cog - Word Recall Trial 2 Subscore,ADCRLT02_FTREASND,FTREASND,C82556,"If any item(s) are incomplete or not done, please specify reason:",,4,N,text,200,,N,,,Participant refused;Participant unable for physical reasons;Participant unable for cognitive reasons;Not done for reasons other than physical/cognitive,Participant refused;Participant unable for physical reasons;Participant unable for cognitive reasons;Not done for reasons other than physical/cognitive,Single,,,FTREASND,FTREASND,
2025-12-31,C100180,ADCRLT03,CDASHIG,2-3,,FT,ADCRLT03,,,CDISC ADAS-Cog - Word Recall Trial 3 Subscore,ADCRLT03_FTSCAT,FTSCAT,C25692,,Subcategory,1,N,text,100,,N,,,,,,Word Recall,,FTSCAT,FTSCAT = Word Recall,
2025-12-31,C100180,ADCRLT03,CDASHIG,2-3,,FT,ADCRLT03,,,CDISC ADAS-Cog - Word Recall Trial 3 Subscore,ADCRLT03_FTTPT,FTTPT,,,Timepoint,2,N,text,100,,Y,,,,,,Trial 3,,FTTPT,FTTPT = Trial 3,
2025-12-31,C100180,ADCRLT03,CDASHIG,2-3,,FT,ADCRLT03,,,CDISC ADAS-Cog - Word Recall Trial 3 Subscore,ADCRLT03_FTORRES,FTORRES,C91106,,WORD RECALL / TRIAL 3,3,Y,integer,3,,N,,,,,,,,FTORRES;FTTESTCD;FTTEST,FTORRES when FTTESTCD = ADCRLT03,
2025-12-31,C100180,ADCRLT03,CDASHIG,2-3,,FT,ADCRLT03,,,CDISC ADAS-Cog - Word Recall Trial 3 Subscore,ADCRLT03_FTREASND,FTREASND,C82556,"If any item(s) are incomplete or not done, please specify reason:",,4,N,text,200,,N,,,Participant refused;Participant unable for physical reasons;Participant unable for cognitive reasons;Not done for reasons other than physical/cognitive,Participant refused;Participant unable for physical reasons;Participant unable for cognitive reasons;Not done for reasons other than physical/cognitive,Single,,,FTREASND,FTREASND,
2025-12-31,C100276,ADCSL,CDASHIG,2-3,,FT,ADCSL,,,CDISC ADAS-Cog - Spoken Language Ability,ADCSL_FTSCAT,FTSCAT,C25692,,Subcategory,1,N,text,100,,N,,,,,,Degree of Impairment,,FTSCAT,FTSCAT = Degree of Impairment,
2025-12-31,C100276,ADCSL,CDASHIG,2-3,,FT,ADCSL,,,CDISC ADAS-Cog - Spoken Language Ability,ADCSL_FTORRES,FTORRES,C91106,,SPOKEN LANGUAGE ABILITY,2,Y,text,5,2.0,N,,,"No instances where it is difficult to understand the subject;Very mild - one instance of lack of understandability;Mild - patient has difficulty less than 25% of the time;Moderate - patient has difficulty 25-50% of the time;Moderately severe - patient has difficulty 50% of the time;Severe - one or two word utterance - fluent, but empty speech, mute","No instances where it is difficult to understand the subject;Very mild - one instance of lack of understandability;Mild - patient has difficulty less than 25% of the time;Moderate - patient has difficulty 25-50% of the time;Moderately severe - patient has difficulty 50% of the time;Severe - one or two word utterance - fluent, but empty speech, mute",Single,,,FTORRES;FTTESTCD;FTTEST,FTORRES when FTTESTCD = ADCSL,
2025-12-31,C115789,,CDASHIG,2-3,,FT,SIXMW1,,,Six Minute Walk Test,SIXMW1_FTPERF,FTPERF,C82525,Was the Six Minute Walk Test performed?,,1,N,text,1,,N,C66742,NY,N;Y,No;Yes,Single,,,FTSTAT,[NOT SUBMITTED]; FTSTAT = NOT DONE when FTTESTCD = FTALL,
2025-12-31,C115789,,CDASHIG,2-3,,FT,SIXMW1,,,Six Minute Walk Test,SIXMW1_FTDAT,FTDAT,C82515,,Date of Assessment,2,Y,date,10,,N,,,,,,,,FTDTC,FTDTC,
2025-12-31,C115789,,CDASHIG,2-3,,FT,SIXMW1,,,Six Minute Walk Test,SIXMW1_FTCAT,FTCAT,,,Category,3,Y,text,50,,N,C115304,FTCAT,,,,SIX MINUTE WALK,C115789,FTCAT,FTCAT = SIX MINUTE WALK,
2025-12-31,C115789,,CDASHIG,2-3,,FT,SIXMW1,,,Six Minute Walk Test,SIXMW1_FTASTDEV,FTASTDEV,C93300,,Assisted Device,4,Y,text,200,,N,,,,,,,,FTASTDEV,FTASTDEV in SUPPFT,
2025-12-31,C115800,SIXMW101,CDASHIG,2-3,,FT,SIXMW101,,,SIXMW1-Distance at 1 Minute,SIXMW101_FTORRES,FTORRES,C91106,,Distance at 1 Minute,1,Y,integer,3,,N,,,,,,,,FTORRES;FTTESTCD;FTTEST,FTORRES when FTTESTCD = SIXMW101,
2025-12-31,C115800,SIXMW101,CDASHIG,2-3,,FT,SIXMW101,,,SIXMW1-Distance at 1 Minute,SIXMW101_FTORRESU,FTORRESU,C42578,,Unit,2,Y,text,1,,N,C71620,UNIT,,,,m,C41139,FTORRESU,FTORRESU = m when FTTESTCD = SIXMW101,
2025-12-31,C115801,SIXMW102,CDASHIG,2-3,,FT,SIXMW102,,,SIXMW1-Distance at 2 Minute,SIXMW102_FTORRES,FTORRES,C91106,,Distance at 2 Minutes,1,Y,integer,3,,N,,,,,,,,FTORRES;FTTESTCD;FTTEST,FTORRES when FTTESTCD = SIXMW102,
2025-12-31,C115801,SIXMW102,CDASHIG,2-3,,FT,SIXMW102,,,SIXMW1-Distance at 2 Minute,SIXMW102_FTORRESU,FTORRESU,C42578,,Unit,2,Y,text,1,,N,C71620,UNIT,,,,m,C41139,FTORRESU,FTORRESU = m when FTTESTCD = SIXMW102,
2025-12-31,C115802,SIXMW103,CDASHIG,2-3,,FT,SIXMW103,,,SIXMW1-Distance at 3 Minute,SIXMW103_FTORRES,FTORRES,C91106,,Distance at 3 Minutes,1,Y,integer,3,,N,,,,,,,,FTORRES;FTTESTCD;FTTEST,FTORRES when FTTESTCD = SIXMW103,
2025-12-31,C115802,SIXMW103,CDASHIG,2-3,,FT,SIXMW103,,,SIXMW1-Distance at 3 Minute,SIXMW103_FTORRESU,FTORRESU,C42578,,Unit,2,Y,text,1,,N,C71620,UNIT,,,,m,C41139,FTORRESU,FTORRESU = m when FTTESTCD = SIXMW103,
2025-12-31,C115803,SIXMW104,CDASHIG,2-3,,FT,SIXMW104,,,SIXMW1-Distance at 4 Minute,SIXMW104_FTORRES,FTORRES,C91106,,Distance at 4 Minutes,1,Y,integer,3,,N,,,,,,,,FTORRES;FTTESTCD;FTTEST,FTORRES when FTTESTCD = SIXMW104,
2025-12-31,C115803,SIXMW104,CDASHIG,2-3,,FT,SIXMW104,,,SIXMW1-Distance at 4 Minute,SIXMW104_FTORRESU,FTORRESU,C42578,,Unit,2,Y,text,1,,N,C71620,UNIT,,,,m,C41139,FTORRESU,FTORRESU = m when FTTESTCD = SIXMW104,
2025-12-31,C115804,SIXMW105,CDASHIG,2-3,,FT,SIXMW105,,,SIXMW1-Distance at 5 Minute,SIXMW105_FTORRES,FTORRES,C91106,,Distance at 5 Minutes,1,Y,integer,3,,N,,,,,,,,FTORRES;FTTESTCD;FTTEST,FTORRES when FTTESTCD = SIXMW105,
2025-12-31,C115804,SIXMW105,CDASHIG,2-3,,FT,SIXMW105,,,SIXMW1-Distance at 5 Minute,SIXMW105_FTORRESU,FTORRESU,C42578,,Unit,2,Y,text,1,,N,C71620,UNIT,,,,m,C41139,FTORRESU,FTORRESU = m when FTTESTCD = SIXMW105,
2025-12-31,C115805,SIXMW106,CDASHIG,2-3,,FT,SIXMW106,,,SIXMW1-Distance at 6 Minute,SIXMW106_FTORRES,FTORRES,C91106,,Distance at 6 Minutes,1,Y,integer,3,,N,,,,,,,,FTORRES;FTTESTCD;FTTEST,FTORRES when FTTESTCD = SIXMW106,
2025-12-31,C115805,SIXMW106,CDASHIG,2-3,,FT,SIXMW106,,,SIXMW1-Distance at 6 Minute,SIXMW106_FTORRESU,FTORRESU,C42578,,Unit,2,Y,text,1,,N,C71620,UNIT,,,,m,C41139,FTORRESU,FTORRESU = m when FTTESTCD = SIXMW106,
2025-12-31,C25370,EXCL01,CDASHIG,2-1,,IE,EXCL01_VERTICAL,Vertical,,Exclusion Criteria 01 (Vertical),IEDAT,IEDAT,C82515,What was the date the eligibility criteria assessment was performed?,,1,Y,date,10,,N,,,,,,,,IEDTC,IEDTC when IECAT = EXCLUSION,
2025-12-31,C25370,EXCL01,CDASHIG,2-1,,IE,EXCL01_VERTICAL,Vertical,,Exclusion Criteria 01 (Vertical),IECAT,IECAT,C25372,What was the category of the criterion?,,2,Y,text,15,,N,C66797,IECAT,,,,EXCLUSION,C25370,IECAT,IECAT = EXCLUSION,
2025-12-31,C25370,EXCL01,CDASHIG,2-1,,IE,EXCL01_VERTICAL,Vertical,,Exclusion Criteria 01 (Vertical),IEORRES,IEORRES,C181043,What was the identifier of the exclusion criterion the subject met?,,3,Y,text,20,,N,,,EXCL01;EXCL02;EXCL03,EXCL01;EXCL02;EXCL03,Multiple,,,IEORRES;IETESTCD;IETEST,IETESTCD when IECAT = EXCLUSION,
2025-12-31,C25532,INCL01,CDASHIG,2-1,,IE,INCL01_VERTICAL,Vertical,,Inclusion Criteria 01 (Vertical),IEDAT,IEDAT,C82515,What was the date the eligibility criteria assessment was performed?,,1,Y,date,10,,N,,,,,,,,IEDTC,IEDTC when IECAT = INCLUSION,
2025-12-31,C25532,INCL01,CDASHIG,2-1,,IE,INCL01_VERTICAL,Vertical,,Inclusion Criteria 01 (Vertical),IECAT,IECAT,C25372,What was the category of the criterion?,,2,Y,text,15,,N,C66797,IECAT,,,,INCLUSION,C25532,IECAT,IECAT = INCLUSION,
2025-12-31,C25532,INCL01,CDASHIG,2-1,,IE,INCL01_VERTICAL,Vertical,,Inclusion Criteria 01 (Vertical),IEORRES,IEORRES,C181043,What was the identifier of the inclusion criterion the subject did not meet ?,,3,Y,text,20,,N,,,INCL01;INCL02;INCL03,INCL01;INCL02;INCL03,Multiple,,,IEORRES;IETESTCD;IETEST,IETESTCD when IECAT = INCLUSION,
2025-12-31,C83063,,CDASHIG,2-1,,IE,INCLEXCLYN,,,Inclusion Exclusion Criteria Yes No,IEYN,IEYN,,Were all eligibility criteria met?,,1,N,text,1,,N,C66742,NY,N;Y,No;Yes,Single,,,,[NOT SUBMITTED],
2025-12-31,C64431,ALBSERPL,CDASHIG,2-3,,LB,ALBSERPL_VERTICAL,Vertical,Local Processing,Albumin Concentration in Serum/Plasma (Vertical),ALB_LBCAT,LBCAT,,,Lab Panel Name,1,N,text,100,,Y,,,,,,CHEMISTRY,,LBCAT,LBCAT = CHEMISTRY,
2025-12-31,C64431,ALBSERPL,CDASHIG,2-3,,LB,ALBSERPL_VERTICAL,Vertical,Local Processing,Albumin Concentration in Serum/Plasma (Vertical),ALB_LBSCAT,LBSCAT,,,Lab Sub-Panel Name,2,N,text,100,,Y,,,,,,,,LBSCAT,LBSCAT,
2025-12-31,C64431,ALBSERPL,CDASHIG,2-3,,LB,ALBSERPL_VERTICAL,Vertical,Local Processing,Albumin Concentration in Serum/Plasma (Vertical),ALB_LBNAM,LBNAM,,What was the name of the laboratory used?,,3,N,text,200,,N,,,,,,,,LBNAM,LBNAM,
2025-12-31,C64431,ALBSERPL,CDASHIG,2-3,,LB,ALBSERPL_VERTICAL,Vertical,Local Processing,Albumin Concentration in Serum/Plasma (Vertical),ALB_LBDAT,LBDAT,C82515,,Specimen Collection Date,4,N,date,10,,N,,,,,,,,LBDTC,LBDTC,
2025-12-31,C64431,ALBSERPL,CDASHIG,2-3,,LB,ALBSERPL_VERTICAL,Vertical,Local Processing,Albumin Concentration in Serum/Plasma (Vertical),ALB_LBSPEC,LBSPEC,C70713,,Specimen Material,5,Y,text,100,,N,C78734,SPECTYPE,,,,SERUM OR PLASMA,C105706,LBSPEC,LBSPEC,
2025-12-31,C64431,ALBSERPL,CDASHIG,2-3,,LB,ALBSERPL_VERTICAL,Vertical,Local Processing,Albumin Concentration in Serum/Plasma (Vertical),ALB_LBFAST,LBFAST,C93566,Was the subject fasting?,,6,N,text,1,,N,C66742,NY,N;Y,No;Yes,Single,,,LBFAST,LBFAST,
2025-12-31,C64431,ALBSERPL,CDASHIG,2-3,,LB,ALBSERPL_VERTICAL,Vertical,Local Processing,Albumin Concentration in Serum/Plasma (Vertical),ALB_LBORRES,LBORRES,C70856,,Albumin,7,Y,decimal,8,2.0,N,,,,,,,,LBORRES;LBTESTCD;LBTEST,LBORRES when LBTESTCD = ALB,
2025-12-31,C64431,ALBSERPL,CDASHIG,2-3,,LB,ALBSERPL_VERTICAL,Vertical,Local Processing,Albumin Concentration in Serum/Plasma (Vertical),ALB_LBORRESU,LBORRESU,C48207,,Unit,8,Y,text,20,,N,C71620,UNIT,g/L;g/dL;mg/dL;umol/L,g/L;g/dL;mg/dL;umol/L,Single,,,LBORRESU;LBTESTCD;LBTEST,LBORRESU when LBTESTCD = ALB,
2025-12-31,C64431,ALBSERPL,CDASHIG,2-3,,LB,ALBSERPL_VERTICAL,Vertical,Local Processing,Albumin Concentration in Serum/Plasma (Vertical),ALB_LBORNRLO,LBORNRLO,,,Normal Range Lower Limit,9,N,decimal,8,2.0,N,,,,,,,,LBORNRLO,LBORNRLO,
2025-12-31,C64431,ALBSERPL,CDASHIG,2-3,,LB,ALBSERPL_VERTICAL,Vertical,Local Processing,Albumin Concentration in Serum/Plasma (Vertical),ALB_LBORNRHI,LBORNRHI,,,Normal Range Upper Limit,10,N,decimal,8,2.0,N,,,,,,,,LBORNRHI,LBORNRHI,
2025-12-31,C64431,ALBSERPL,CDASHIG,2-3,,LB,ALBSERPL_VERTICAL,Vertical,Local Processing,Albumin Concentration in Serum/Plasma (Vertical),ALB_LBCLSIG,LBCLSIG,,Was this result clinically significant?,,11,N,text,1,,N,C66742,NY,N;Y,No;Yes,Single,,,LBCLSIG,LBCLSIG,
2025-12-31,C64431,ALBURIN,CDASHIG,2-3,,LB,ALBURIN_VERTICAL,Vertical,Local Processing,Albumin Concentration in Urine (Vertical),ALB_LBCAT,LBCAT,,,Lab Panel Name,1,N,text,100,,Y,,,,,,CHEMISTRY,,LBCAT,LBCAT = CHEMISTRY,
2025-12-31,C64431,ALBURIN,CDASHIG,2-3,,LB,ALBURIN_VERTICAL,Vertical,Local Processing,Albumin Concentration in Urine (Vertical),ALB_LBSCAT,LBSCAT,,,Lab Sub-Panel Name,2,N,text,100,,Y,,,,,,,,LBSCAT,LBSCAT,
2025-12-31,C64431,ALBURIN,CDASHIG,2-3,,LB,ALBURIN_VERTICAL,Vertical,Local Processing,Albumin Concentration in Urine (Vertical),ALB_LBNAM,LBNAM,,What was the name of the laboratory used?,,3,N,text,200,,N,,,,,,,,LBNAM,LBNAM,
2025-12-31,C64431,ALBURIN,CDASHIG,2-3,,LB,ALBURIN_VERTICAL,Vertical,Local Processing,Albumin Concentration in Urine (Vertical),ALB_LBDAT,LBDAT,C82515,,Specimen Collection Date,4,N,date,10,,N,,,,,,,,LBDTC,LBDTC,
2025-12-31,C64431,ALBURIN,CDASHIG,2-3,,LB,ALBURIN_VERTICAL,Vertical,Local Processing,Albumin Concentration in Urine (Vertical),ALB_LBSPEC,LBSPEC,C70713,,Specimen Material,5,Y,text,100,,N,C78734,SPECTYPE,,,,URINE,C13283,LBSPEC,LBSPEC = URINE,
2025-12-31,C64431,ALBURIN,CDASHIG,2-3,,LB,ALBURIN_VERTICAL,Vertical,Local Processing,Albumin Concentration in Urine (Vertical),ALB_LBFAST,LBFAST,C93566,Was the subject fasting?,,6,N,text,1,,N,C66742,NY,N;Y,No;Yes,Single,,,LBFAST,LBFAST,
2025-12-31,C64431,ALBURIN,CDASHIG,2-3,,LB,ALBURIN_VERTICAL,Vertical,Local Processing,Albumin Concentration in Urine (Vertical),ALB_LBORRES,LBORRES,C70856,,Albumin,7,Y,decimal,8,2.0,N,,,,,,,,LBORRES;LBTESTCD;LBTEST,LBORRES when LBTESTCD = ALB,
2025-12-31,C64431,ALBURIN,CDASHIG,2-3,,LB,ALBURIN_VERTICAL,Vertical,Local Processing,Albumin Concentration in Urine (Vertical),ALB_LBORRESU,LBORRESU,C48207,,Unit,8,Y,text,20,,N,C71620,UNIT,g/L;g/dL;mg/dL;mg/L,g/L;g/dL;mg/dL;mg/L,Single,,,LBORRESU;LBTESTCD;LBTEST,LBORRESU when LBTESTCD = ALB,
2025-12-31,C64431,ALBURIN,CDASHIG,2-3,,LB,ALBURIN_VERTICAL,Vertical,Local Processing,Albumin Concentration in Urine (Vertical),ALB_LBORNRLO,LBORNRLO,,,Normal Range Lower Limit,9,N,decimal,8,2.0,N,,,,,,,,LBORNRLO,LBORNRLO,
2025-12-31,C64431,ALBURIN,CDASHIG,2-3,,LB,ALBURIN_VERTICAL,Vertical,Local Processing,Albumin Concentration in Urine (Vertical),ALB_LBORNRHI,LBORNRHI,,,Normal Range Upper Limit,10,N,decimal,8,2.0,N,,,,,,,,LBORNRHI,LBORNRHI,
2025-12-31,C64431,ALBURIN,CDASHIG,2-3,,LB,ALBURIN_VERTICAL,Vertical,Local Processing,Albumin Concentration in Urine (Vertical),ALB_LBCLSIG,LBCLSIG,,Was this result clinically significant?,,11,N,text,1,,N,C66742,NY,N;Y,No;Yes,Single,,,LBCLSIG,LBCLSIG,
2025-12-31,C64432,ALPSERPL,CDASHIG,2-3,,LB,ALPSERPL_VERTICAL,Vertical,Local Processing,Alkaline Phosphatase Concentration in Serum/Plasma (Vertical),ALP_LBCAT,LBCAT,,,Lab Panel Name,1,N,text,100,,Y,,,,,,CHEMISTRY,,LBCAT,LBCAT = CHEMISTRY,
2025-12-31,C64432,ALPSERPL,CDASHIG,2-3,,LB,ALPSERPL_VERTICAL,Vertical,Local Processing,Alkaline Phosphatase Concentration in Serum/Plasma (Vertical),ALP_LBSCAT,LBSCAT,,,Lab Sub-Panel Name,2,N,text,100,,Y,,,,,,,,LBSCAT,LBSCAT,
2025-12-31,C64432,ALPSERPL,CDASHIG,2-3,,LB,ALPSERPL_VERTICAL,Vertical,Local Processing,Alkaline Phosphatase Concentration in Serum/Plasma (Vertical),ALP_LBNAM,LBNAM,,What was the name of the laboratory used?,,3,N,text,200,,N,,,,,,,,LBNAM,LBNAM,
2025-12-31,C64432,ALPSERPL,CDASHIG,2-3,,LB,ALPSERPL_VERTICAL,Vertical,Local Processing,Alkaline Phosphatase Concentration in Serum/Plasma (Vertical),ALP_LBDAT,LBDAT,C82515,,Specimen Collection Date,4,N,date,10,,N,,,,,,,,LBDTC,LBDTC,
2025-12-31,C64432,ALPSERPL,CDASHIG,2-3,,LB,ALPSERPL_VERTICAL,Vertical,Local Processing,Alkaline Phosphatase Concentration in Serum/Plasma (Vertical),ALP_LBSPEC,LBSPEC,C70713,,Specimen Material,5,Y,text,100,,N,C78734,SPECTYPE,,,,SERUM OR PLASMA,C105706,LBSPEC,LBSPEC,
2025-12-31,C64432,ALPSERPL,CDASHIG,2-3,,LB,ALPSERPL_VERTICAL,Vertical,Local Processing,Alkaline Phosphatase Concentration in Serum/Plasma (Vertical),ALP_LBFAST,LBFAST,C93566,Was the subject fasting?,,6,N,text,1,,N,C66742,NY,N;Y,No;Yes,Single,,,LBFAST,LBFAST,
2025-12-31,C64432,ALPSERPL,CDASHIG,2-3,,LB,ALPSERPL_VERTICAL,Vertical,Local Processing,Alkaline Phosphatase Concentration in Serum/Plasma (Vertical),ALP_LBORRES,LBORRES,C70856,,Alkaline Phosphatase,7,Y,decimal,8,2.0,N,,,,,,,,LBORRES;LBTESTCD;LBTEST,LBORRES when LBTESTCD = ALP,
2025-12-31,C64432,ALPSERPL,CDASHIG,2-3,,LB,ALPSERPL_VERTICAL,Vertical,Local Processing,Alkaline Phosphatase Concentration in Serum/Plasma (Vertical),ALP_LBORRESU,LBORRESU,C67365,,Unit,8,Y,text,20,,N,C71620,UNIT,U/L;ukat/L;IU/L,U/L;ukat/L;IU/L,Single,,,LBORRESU;LBTESTCD;LBTEST,LBORRESU when LBTESTCD = ALP,
2025-12-31,C64432,ALPSERPL,CDASHIG,2-3,,LB,ALPSERPL_VERTICAL,Vertical,Local Processing,Alkaline Phosphatase Concentration in Serum/Plasma (Vertical),ALP_LBORNRLO,LBORNRLO,,,Normal Range Lower Limit,9,N,decimal,8,2.0,N,,,,,,,,LBORNRLO,LBORNRLO,
2025-12-31,C64432,ALPSERPL,CDASHIG,2-3,,LB,ALPSERPL_VERTICAL,Vertical,Local Processing,Alkaline Phosphatase Concentration in Serum/Plasma (Vertical),ALP_LBORNRHI,LBORNRHI,,,Normal Range Upper Limit,10,N,decimal,8,2.0,N,,,,,,,,LBORNRHI,LBORNRHI,
2025-12-31,C64432,ALPSERPL,CDASHIG,2-3,,LB,ALPSERPL_VERTICAL,Vertical,Local Processing,Alkaline Phosphatase Concentration in Serum/Plasma (Vertical),ALP_LBCLSIG,LBCLSIG,,Was this result clinically significant?,,11,N,text,1,,N,C66742,NY,N;Y,No;Yes,Single,,,LBCLSIG,LBCLSIG,
2025-12-31,C64433,ALTSERPL,CDASHIG,2-3,,LB,ALTSERPL_VERTICAL,Vertical,Local Processing,Alanine Aminotransferase Concentration in Serum/Plasma (Vertical),ALT_LBCAT,LBCAT,,,Lab Panel Name,1,N,text,100,,Y,,,,,,CHEMISTRY,,LBCAT,LBCAT = CHEMISTRY,
2025-12-31,C64433,ALTSERPL,CDASHIG,2-3,,LB,ALTSERPL_VERTICAL,Vertical,Local Processing,Alanine Aminotransferase Concentration in Serum/Plasma (Vertical),ALT_LBSCAT,LBSCAT,,,Lab Sub-Panel Name,2,N,text,100,,Y,,,,,,,,LBSCAT,LBSCAT,
2025-12-31,C64433,ALTSERPL,CDASHIG,2-3,,LB,ALTSERPL_VERTICAL,Vertical,Local Processing,Alanine Aminotransferase Concentration in Serum/Plasma (Vertical),ALT_LBNAM,LBNAM,,What was the name of the laboratory used?,,3,N,text,200,,N,,,,,,,,LBNAM,LBNAM,
2025-12-31,C64433,ALTSERPL,CDASHIG,2-3,,LB,ALTSERPL_VERTICAL,Vertical,Local Processing,Alanine Aminotransferase Concentration in Serum/Plasma (Vertical),ALT_LBDAT,LBDAT,C82515,,Specimen Collection Date,4,N,date,10,,N,,,,,,,,LBDTC,LBDTC,
2025-12-31,C64433,ALTSERPL,CDASHIG,2-3,,LB,ALTSERPL_VERTICAL,Vertical,Local Processing,Alanine Aminotransferase Concentration in Serum/Plasma (Vertical),ALT_LBSPEC,LBSPEC,C70713,,Specimen Material,5,Y,text,100,,N,C78734,SPECTYPE,,,,SERUM OR PLASMA,C105706,LBSPEC,LBSPEC,
2025-12-31,C64433,ALTSERPL,CDASHIG,2-3,,LB,ALTSERPL_VERTICAL,Vertical,Local Processing,Alanine Aminotransferase Concentration in Serum/Plasma (Vertical),ALT_LBFAST,LBFAST,C93566,Was the subject fasting?,,6,N,text,1,,N,C66742,NY,N;Y,No;Yes,Single,,,LBFAST,LBFAST,
2025-12-31,C64433,ALTSERPL,CDASHIG,2-3,,LB,ALTSERPL_VERTICAL,Vertical,Local Processing,Alanine Aminotransferase Concentration in Serum/Plasma (Vertical),ALT_LBORRES,LBORRES,C70856,,Alanine Aminotransferase,7,Y,decimal,8,2.0,N,,,,,,,,LBORRES;LBTESTCD;LBTEST,LBORRES when LBTESTCD = ALT,
2025-12-31,C64433,ALTSERPL,CDASHIG,2-3,,LB,ALTSERPL_VERTICAL,Vertical,Local Processing,Alanine Aminotransferase Concentration in Serum/Plasma (Vertical),ALT_LBORRESU,LBORRESU,C67365,,Unit,8,Y,text,20,,N,C71620,UNIT,U/L;ukat/L;IU/L;nkat/L,U/L;ukat/L;IU/L;nkat/L,Single,,,LBORRESU;LBTESTCD;LBTEST,LBORRESU when LBTESTCD = ALT,
2025-12-31,C64433,ALTSERPL,CDASHIG,2-3,,LB,ALTSERPL_VERTICAL,Vertical,Local Processing,Alanine Aminotransferase Concentration in Serum/Plasma (Vertical),ALT_LBORNRLO,LBORNRLO,,,Normal Range Lower Limit,9,N,decimal,8,2.0,N,,,,,,,,LBORNRLO,LBORNRLO,
2025-12-31,C64433,ALTSERPL,CDASHIG,2-3,,LB,ALTSERPL_VERTICAL,Vertical,Local Processing,Alanine Aminotransferase Concentration in Serum/Plasma (Vertical),ALT_LBORNRHI,LBORNRHI,,,Normal Range Upper Limit,10,N,decimal,8,2.0,N,,,,,,,,LBORNRHI,LBORNRHI,
2025-12-31,C64433,ALTSERPL,CDASHIG,2-3,,LB,ALTSERPL_VERTICAL,Vertical,Local Processing,Alanine Aminotransferase Concentration in Serum/Plasma (Vertical),ALT_LBCLSIG,LBCLSIG,,Was this result clinically significant?,,11,N,text,1,,N,C66742,NY,N;Y,No;Yes,Single,,,LBCLSIG,LBCLSIG,
2025-12-31,C74797,ANISOBLD,CDASHIG,2-3,,LB,ANISOBLD_VERTICAL,Vertical,Local Processing,Anisocytes in Blood (Vertical),ANISO_LBCAT,LBCAT,,,Lab Panel Name,1,N,text,100,,Y,,,,,,HEMATOLOGY,,LBCAT,LBCAT = HEMATOLOGY,
2025-12-31,C74797,ANISOBLD,CDASHIG,2-3,,LB,ANISOBLD_VERTICAL,Vertical,Local Processing,Anisocytes in Blood (Vertical),ANISO_LBSCAT,LBSCAT,,,Lab Sub-Panel Name,2,N,text,100,,Y,,,,,,,,LBSCAT,LBSCAT,
2025-12-31,C74797,ANISOBLD,CDASHIG,2-3,,LB,ANISOBLD_VERTICAL,Vertical,Local Processing,Anisocytes in Blood (Vertical),ANISO_LBNAM,LBNAM,,What was the name of the laboratory used?,,3,N,text,200,,N,,,,,,,,LBNAM,LBNAM,
2025-12-31,C74797,ANISOBLD,CDASHIG,2-3,,LB,ANISOBLD_VERTICAL,Vertical,Local Processing,Anisocytes in Blood (Vertical),ANISO_LBDAT,LBDAT,C82515,,Specimen Collection Date,4,N,date,10,,N,,,,,,,,LBDTC,LBDTC,
2025-12-31,C74797,ANISOBLD,CDASHIG,2-3,,LB,ANISOBLD_VERTICAL,Vertical,Local Processing,Anisocytes in Blood (Vertical),ANISO_LBSPEC,LBSPEC,C70713,,Specimen Material,5,Y,text,100,,N,C78734,SPECTYPE,,,,BLOOD,C12434,LBSPEC,LBSPEC = BLOOD,
2025-12-31,C74797,ANISOBLD,CDASHIG,2-3,,LB,ANISOBLD_VERTICAL,Vertical,Local Processing,Anisocytes in Blood (Vertical),ANISO_LBFAST,LBFAST,C93566,Was the subject fasting?,,6,N,text,1,,N,C66742,NY,N;Y,No;Yes,Single,,,LBFAST,LBFAST,
2025-12-31,C74797,ANISOBLD,CDASHIG,2-3,,LB,ANISOBLD_VERTICAL,Vertical,Local Processing,Anisocytes in Blood (Vertical),ANISO_LBORRES,LBORRES,C70856,,Anisocytes,7,Y,decimal,8,2.0,N,,,,,,,,LBORRES;LBTESTCD;LBTEST,LBORRES when LBTESTCD = ANISO,
2025-12-31,C74797,ANISOBLD,CDASHIG,2-3,,LB,ANISOBLD_VERTICAL,Vertical,Local Processing,Anisocytes in Blood (Vertical),ANISO_LBORRESU,LBORRESU,,,Unit,8,N,text,20,,N,,,,,,,,LBORRESU;LBTESTCD;LBTEST,LBORRESU when LBTESTCD = ANISO,
2025-12-31,C74797,ANISOBLD,CDASHIG,2-3,,LB,ANISOBLD_VERTICAL,Vertical,Local Processing,Anisocytes in Blood (Vertical),ANISO_LBORNRLO,LBORNRLO,,,Normal Range Lower Limit,9,N,decimal,8,2.0,N,,,,,,,,LBORNRLO,LBORNRLO,
2025-12-31,C74797,ANISOBLD,CDASHIG,2-3,,LB,ANISOBLD_VERTICAL,Vertical,Local Processing,Anisocytes in Blood (Vertical),ANISO_LBORNRHI,LBORNRHI,,,Normal Range Upper Limit,10,N,decimal,8,2.0,N,,,,,,,,LBORNRHI,LBORNRHI,
2025-12-31,C74797,ANISOBLD,CDASHIG,2-3,,LB,ANISOBLD_VERTICAL,Vertical,Local Processing,Anisocytes in Blood (Vertical),ANISO_LBCLSIG,LBCLSIG,,Was this result clinically significant?,,11,N,text,1,,N,C66742,NY,N;Y,No;Yes,Single,,,LBCLSIG,LBCLSIG,
2025-12-31,C64467,ASTSERPL,CDASHIG,2-3,,LB,ASTSERPL_VERTICAL,Vertical,Local Processing,Aspartate Aminotransferase in Serum/Plasma (Vertical),AST_LBCAT,LBCAT,,,Lab Panel Name,1,N,text,100,,Y,,,,,,CHEMISTRY,,LBCAT,LBCAT = CHEMISTRY,
2025-12-31,C64467,ASTSERPL,CDASHIG,2-3,,LB,ASTSERPL_VERTICAL,Vertical,Local Processing,Aspartate Aminotransferase in Serum/Plasma (Vertical),AST_LBSCAT,LBSCAT,,,Lab Sub-Panel Name,2,N,text,100,,Y,,,,,,,,LBSCAT,LBSCAT,
2025-12-31,C64467,ASTSERPL,CDASHIG,2-3,,LB,ASTSERPL_VERTICAL,Vertical,Local Processing,Aspartate Aminotransferase in Serum/Plasma (Vertical),AST_LBNAM,LBNAM,,What was the name of the laboratory used?,,3,N,text,200,,N,,,,,,,,LBNAM,LBNAM,
2025-12-31,C64467,ASTSERPL,CDASHIG,2-3,,LB,ASTSERPL_VERTICAL,Vertical,Local Processing,Aspartate Aminotransferase in Serum/Plasma (Vertical),AST_LBDAT,LBDAT,C82515,,Specimen Collection Date,4,N,date,10,,N,,,,,,,,LBDTC,LBDTC,
2025-12-31,C64467,ASTSERPL,CDASHIG,2-3,,LB,ASTSERPL_VERTICAL,Vertical,Local Processing,Aspartate Aminotransferase in Serum/Plasma (Vertical),AST_LBSPEC,LBSPEC,C70713,,Specimen Material,5,Y,text,100,,N,C78734,SPECTYPE,,,,SERUM OR PLASMA,C105706,LBSPEC,LBSPEC,
2025-12-31,C64467,ASTSERPL,CDASHIG,2-3,,LB,ASTSERPL_VERTICAL,Vertical,Local Processing,Aspartate Aminotransferase in Serum/Plasma (Vertical),AST_LBFAST,LBFAST,C93566,Was the subject fasting?,,6,N,text,1,,N,C66742,NY,N;Y,No;Yes,Single,,,LBFAST,LBFAST,
2025-12-31,C64467,ASTSERPL,CDASHIG,2-3,,LB,ASTSERPL_VERTICAL,Vertical,Local Processing,Aspartate Aminotransferase in Serum/Plasma (Vertical),AST_LBORRES,LBORRES,C70856,,Aspartate Aminotransferase,7,Y,decimal,8,2.0,N,,,,,,,,LBORRES;LBTESTCD;LBTEST,LBORRES when LBTESTCD = AST,
2025-12-31,C64467,ASTSERPL,CDASHIG,2-3,,LB,ASTSERPL_VERTICAL,Vertical,Local Processing,Aspartate Aminotransferase in Serum/Plasma (Vertical),AST_LBORRESU,LBORRESU,C67365,,Unit,8,Y,text,20,,N,C71620,UNIT,U/L;ukat/L;IU/L,U/L;ukat/L;IU/L,Single,,,LBORRESU;LBTESTCD;LBTEST,LBORRESU when LBTESTCD = AST,
2025-12-31,C64467,ASTSERPL,CDASHIG,2-3,,LB,ASTSERPL_VERTICAL,Vertical,Local Processing,Aspartate Aminotransferase in Serum/Plasma (Vertical),AST_LBORNRLO,LBORNRLO,,,Normal Range Lower Limit,9,N,decimal,8,2.0,N,,,,,,,,LBORNRLO,LBORNRLO,
2025-12-31,C64467,ASTSERPL,CDASHIG,2-3,,LB,ASTSERPL_VERTICAL,Vertical,Local Processing,Aspartate Aminotransferase in Serum/Plasma (Vertical),AST_LBORNRHI,LBORNRHI,,,Normal Range Upper Limit,10,N,decimal,8,2.0,N,,,,,,,,LBORNRHI,LBORNRHI,
2025-12-31,C64467,ASTSERPL,CDASHIG,2-3,,LB,ASTSERPL_VERTICAL,Vertical,Local Processing,Aspartate Aminotransferase in Serum/Plasma (Vertical),AST_LBCLSIG,LBCLSIG,,Was this result clinically significant?,,11,N,text,1,,N,C66742,NY,N;Y,No;Yes,Single,,,LBCLSIG,LBCLSIG,
2025-12-31,C64470,BASOBLD,CDASHIG,2-3,,LB,BASOBLD_VERTICAL,Vertical,Local Processing,Basophil Count in Blood (Vertical),BASO_LBCAT,LBCAT,,,Lab Panel Name,1,N,text,100,,Y,,,,,,HEMATOLOGY,,LBCAT,LBCAT = HEMATOLOGY,
2025-12-31,C64470,BASOBLD,CDASHIG,2-3,,LB,BASOBLD_VERTICAL,Vertical,Local Processing,Basophil Count in Blood (Vertical),BASO_LBSCAT,LBSCAT,,,Lab Sub-Panel Name,2,N,text,100,,Y,,,,,,,,LBSCAT,LBSCAT,
2025-12-31,C64470,BASOBLD,CDASHIG,2-3,,LB,BASOBLD_VERTICAL,Vertical,Local Processing,Basophil Count in Blood (Vertical),BASO_LBNAM,LBNAM,,What was the name of the laboratory used?,,3,N,text,200,,N,,,,,,,,LBNAM,LBNAM,
2025-12-31,C64470,BASOBLD,CDASHIG,2-3,,LB,BASOBLD_VERTICAL,Vertical,Local Processing,Basophil Count in Blood (Vertical),BASO_LBDAT,LBDAT,C82515,,Specimen Collection Date,4,N,date,10,,N,,,,,,,,LBDTC,LBDTC,
2025-12-31,C64470,BASOBLD,CDASHIG,2-3,,LB,BASOBLD_VERTICAL,Vertical,Local Processing,Basophil Count in Blood (Vertical),BASO_LBSPEC,LBSPEC,C70713,,Specimen Material,5,Y,text,100,,N,C78734,SPECTYPE,,,,BLOOD,C12434,LBSPEC,LBSPEC = BLOOD,
2025-12-31,C64470,BASOBLD,CDASHIG,2-3,,LB,BASOBLD_VERTICAL,Vertical,Local Processing,Basophil Count in Blood (Vertical),BASO_LBFAST,LBFAST,C93566,Was the subject fasting?,,6,N,text,1,,N,C66742,NY,N;Y,No;Yes,Single,,,LBFAST,LBFAST,
2025-12-31,C64470,BASOBLD,CDASHIG,2-3,,LB,BASOBLD_VERTICAL,Vertical,Local Processing,Basophil Count in Blood (Vertical),BASO_LBORRES,LBORRES,C70856,,Basophils,7,Y,decimal,8,2.0,N,,,,,,,,LBORRES;LBTESTCD;LBTEST,LBORRES when LBTESTCD = BASO,
2025-12-31,C64470,BASOBLD,CDASHIG,2-3,,LB,BASOBLD_VERTICAL,Vertical,Local Processing,Basophil Count in Blood (Vertical),BASO_LBORRESU,LBORRESU,C67391,,Unit,8,Y,text,20,,N,C71620,UNIT,10^9/L;10^6/L,10^9/L;10^6/L,Single,,,LBORRESU;LBTESTCD;LBTEST,LBORRESU when LBTESTCD = BASO,
2025-12-31,C64470,BASOBLD,CDASHIG,2-3,,LB,BASOBLD_VERTICAL,Vertical,Local Processing,Basophil Count in Blood (Vertical),BASO_LBORNRLO,LBORNRLO,,,Normal Range Lower Limit,9,N,decimal,8,2.0,N,,,,,,,,LBORNRLO,LBORNRLO,
2025-12-31,C64470,BASOBLD,CDASHIG,2-3,,LB,BASOBLD_VERTICAL,Vertical,Local Processing,Basophil Count in Blood (Vertical),BASO_LBORNRHI,LBORNRHI,,,Normal Range Upper Limit,10,N,decimal,8,2.0,N,,,,,,,,LBORNRHI,LBORNRHI,
2025-12-31,C64470,BASOBLD,CDASHIG,2-3,,LB,BASOBLD_VERTICAL,Vertical,Local Processing,Basophil Count in Blood (Vertical),BASO_LBCLSIG,LBCLSIG,,Was this result clinically significant?,,11,N,text,1,,N,C66742,NY,N;Y,No;Yes,Single,,,LBCLSIG,LBCLSIG,
2025-12-31,C74667,BICARBBLD,CDASHIG,2-3,,LB,BICARBBLD_VERTICAL,Vertical,Local Processing,Bicarbonate Concentration in Blood (Vertical),BICARB_LBCAT,LBCAT,,,Lab Panel Name,1,N,text,100,,Y,,,,,,CHEMISTRY,,LBCAT,LBCAT = CHEMISTRY,
2025-12-31,C74667,BICARBBLD,CDASHIG,2-3,,LB,BICARBBLD_VERTICAL,Vertical,Local Processing,Bicarbonate Concentration in Blood (Vertical),BICARB_LBSCAT,LBSCAT,,,Lab Sub-Panel Name,2,N,text,100,,Y,,,,,,,,LBSCAT,LBSCAT,
2025-12-31,C74667,BICARBBLD,CDASHIG,2-3,,LB,BICARBBLD_VERTICAL,Vertical,Local Processing,Bicarbonate Concentration in Blood (Vertical),BICARB_LBNAM,LBNAM,,What was the name of the laboratory used?,,3,N,text,200,,N,,,,,,,,LBNAM,LBNAM,
2025-12-31,C74667,BICARBBLD,CDASHIG,2-3,,LB,BICARBBLD_VERTICAL,Vertical,Local Processing,Bicarbonate Concentration in Blood (Vertical),BICARB_LBDAT,LBDAT,C82515,,Specimen Collection Date,4,N,date,10,,N,,,,,,,,LBDTC,LBDTC,
2025-12-31,C74667,BICARBBLD,CDASHIG,2-3,,LB,BICARBBLD_VERTICAL,Vertical,Local Processing,Bicarbonate Concentration in Blood (Vertical),BICARB_LBSPEC,LBSPEC,C70713,,Specimen Material,5,Y,text,100,,N,C78734,SPECTYPE,,,,BLOOD,C12434,LBSPEC,LBSPEC = BLOOD,
2025-12-31,C74667,BICARBBLD,CDASHIG,2-3,,LB,BICARBBLD_VERTICAL,Vertical,Local Processing,Bicarbonate Concentration in Blood (Vertical),BICARB_LBFAST,LBFAST,C93566,Was the subject fasting?,,6,N,text,1,,N,C66742,NY,N;Y,No;Yes,Single,,,LBFAST,LBFAST,
2025-12-31,C74667,BICARBBLD,CDASHIG,2-3,,LB,BICARBBLD_VERTICAL,Vertical,Local Processing,Bicarbonate Concentration in Blood (Vertical),BICARB_LBORRES,LBORRES,C70856,,Bicarbonate,7,Y,decimal,8,2.0,N,,,,,,,,LBORRES;LBTESTCD;LBTEST,LBORRES when LBTESTCD = BICARB,
2025-12-31,C74667,BICARBBLD,CDASHIG,2-3,,LB,BICARBBLD_VERTICAL,Vertical,Local Processing,Bicarbonate Concentration in Blood (Vertical),BICARB_LBORRESU,LBORRESU,C64567,,Unit,8,Y,text,20,,N,C71620,UNIT,mEq/L;mEq/dL;mmol/L,mEq/L;mEq/dL;mmol/L,Single,,,LBORRESU;LBTESTCD;LBTEST,LBORRESU when LBTESTCD = BICARB,
2025-12-31,C74667,BICARBBLD,CDASHIG,2-3,,LB,BICARBBLD_VERTICAL,Vertical,Local Processing,Bicarbonate Concentration in Blood (Vertical),BICARB_LBORNRLO,LBORNRLO,,,Normal Range Lower Limit,9,N,decimal,8,2.0,N,,,,,,,,LBORNRLO,LBORNRLO,
2025-12-31,C74667,BICARBBLD,CDASHIG,2-3,,LB,BICARBBLD_VERTICAL,Vertical,Local Processing,Bicarbonate Concentration in Blood (Vertical),BICARB_LBORNRHI,LBORNRHI,,,Normal Range Upper Limit,10,N,decimal,8,2.0,N,,,,,,,,LBORNRHI,LBORNRHI,
2025-12-31,C74667,BICARBBLD,CDASHIG,2-3,,LB,BICARBBLD_VERTICAL,Vertical,Local Processing,Bicarbonate Concentration in Blood (Vertical),BICARB_LBCLSIG,LBCLSIG,,Was this result clinically significant?,,11,N,text,1,,N,C66742,NY,N;Y,No;Yes,Single,,,LBCLSIG,LBCLSIG,
2025-12-31,C38037,BILISERPL,CDASHIG,2-3,,LB,BILISERPL_VERTICAL,Vertical,Local Processing,Bilirubin Concentration in Serum or Plasma (Vertical),BILI_LBCAT,LBCAT,,,Lab Panel Name,1,N,text,100,,Y,,,,,,CHEMISTRY,,LBCAT,LBCAT = CHEMISTRY,
2025-12-31,C38037,BILISERPL,CDASHIG,2-3,,LB,BILISERPL_VERTICAL,Vertical,Local Processing,Bilirubin Concentration in Serum or Plasma (Vertical),BILI_LBSCAT,LBSCAT,,,Lab Sub-Panel Name,2,N,text,100,,Y,,,,,,,,LBSCAT,LBSCAT,
2025-12-31,C38037,BILISERPL,CDASHIG,2-3,,LB,BILISERPL_VERTICAL,Vertical,Local Processing,Bilirubin Concentration in Serum or Plasma (Vertical),BILI_LBNAM,LBNAM,,What was the name of the laboratory used?,,3,N,text,200,,N,,,,,,,,LBNAM,LBNAM,
2025-12-31,C38037,BILISERPL,CDASHIG,2-3,,LB,BILISERPL_VERTICAL,Vertical,Local Processing,Bilirubin Concentration in Serum or Plasma (Vertical),BILI_LBDAT,LBDAT,C82515,,Specimen Collection Date,4,N,date,10,,N,,,,,,,,LBDTC,LBDTC,
2025-12-31,C38037,BILISERPL,CDASHIG,2-3,,LB,BILISERPL_VERTICAL,Vertical,Local Processing,Bilirubin Concentration in Serum or Plasma (Vertical),BILI_LBSPEC,LBSPEC,C70713,,Specimen Material,5,Y,text,100,,N,C78734,SPECTYPE,,,,SERUM OR PLASMA,C105706,LBSPEC,LBSPEC,
2025-12-31,C38037,BILISERPL,CDASHIG,2-3,,LB,BILISERPL_VERTICAL,Vertical,Local Processing,Bilirubin Concentration in Serum or Plasma (Vertical),BILI_LBFAST,LBFAST,C93566,Was the subject fasting?,,6,N,text,1,,N,C66742,NY,N;Y,No;Yes,Single,,,LBFAST,LBFAST,
2025-12-31,C38037,BILISERPL,CDASHIG,2-3,,LB,BILISERPL_VERTICAL,Vertical,Local Processing,Bilirubin Concentration in Serum or Plasma (Vertical),BILI_LBORRES,LBORRES,C70856,,Bilirubin,7,Y,decimal,8,2.0,N,,,,,,,,LBORRES;LBTESTCD;LBTEST,LBORRES when LBTESTCD = BILI,
2025-12-31,C38037,BILISERPL,CDASHIG,2-3,,LB,BILISERPL_VERTICAL,Vertical,Local Processing,Bilirubin Concentration in Serum or Plasma (Vertical),BILI_LBORRESU,LBORRESU,C48207,,Unit,8,Y,text,20,,N,C71620,UNIT,mg/dL;mg/L;mmol/L;umol/L,mg/dL;mg/L;mmol/L;umol/L,Single,,,LBORRESU;LBTESTCD;LBTEST,LBORRESU when LBTESTCD = BILI,
2025-12-31,C38037,BILISERPL,CDASHIG,2-3,,LB,BILISERPL_VERTICAL,Vertical,Local Processing,Bilirubin Concentration in Serum or Plasma (Vertical),BILI_LBORNRLO,LBORNRLO,,,Normal Range Lower Limit,9,N,decimal,8,2.0,N,,,,,,,,LBORNRLO,LBORNRLO,
2025-12-31,C38037,BILISERPL,CDASHIG,2-3,,LB,BILISERPL_VERTICAL,Vertical,Local Processing,Bilirubin Concentration in Serum or Plasma (Vertical),BILI_LBORNRHI,LBORNRHI,,,Normal Range Upper Limit,10,N,decimal,8,2.0,N,,,,,,,,LBORNRHI,LBORNRHI,
2025-12-31,C38037,BILISERPL,CDASHIG,2-3,,LB,BILISERPL_VERTICAL,Vertical,Local Processing,Bilirubin Concentration in Serum or Plasma (Vertical),BILI_LBCLSIG,LBCLSIG,,Was this result clinically significant?,,11,N,text,1,,N,C66742,NY,N;Y,No;Yes,Single,,,LBCLSIG,LBCLSIG,
2025-12-31,C38037,BILIURIN,CDASHIG,2-3,,LB,BILIURIN_VERTICAL,Vertical,Local Processing,Bilirubin Concentration in Urine (Vertical),BILI_LBCAT,LBCAT,,,Lab Panel Name,1,N,text,100,,Y,,,,,,CHEMISTRY,,LBCAT,LBCAT = CHEMISTRY,
2025-12-31,C38037,BILIURIN,CDASHIG,2-3,,LB,BILIURIN_VERTICAL,Vertical,Local Processing,Bilirubin Concentration in Urine (Vertical),BILI_LBSCAT,LBSCAT,,,Lab Sub-Panel Name,2,N,text,100,,Y,,,,,,,,LBSCAT,LBSCAT,
2025-12-31,C38037,BILIURIN,CDASHIG,2-3,,LB,BILIURIN_VERTICAL,Vertical,Local Processing,Bilirubin Concentration in Urine (Vertical),BILI_LBNAM,LBNAM,,What was the name of the laboratory used?,,3,N,text,200,,N,,,,,,,,LBNAM,LBNAM,
2025-12-31,C38037,BILIURIN,CDASHIG,2-3,,LB,BILIURIN_VERTICAL,Vertical,Local Processing,Bilirubin Concentration in Urine (Vertical),BILI_LBDAT,LBDAT,C82515,,Specimen Collection Date,4,N,date,10,,N,,,,,,,,LBDTC,LBDTC,
2025-12-31,C38037,BILIURIN,CDASHIG,2-3,,LB,BILIURIN_VERTICAL,Vertical,Local Processing,Bilirubin Concentration in Urine (Vertical),BILI_LBSPEC,LBSPEC,C70713,,Specimen Material,5,Y,text,100,,N,C78734,SPECTYPE,,,,URINE,C13283,LBSPEC,LBSPEC = URINE,
2025-12-31,C38037,BILIURIN,CDASHIG,2-3,,LB,BILIURIN_VERTICAL,Vertical,Local Processing,Bilirubin Concentration in Urine (Vertical),BILI_LBFAST,LBFAST,C93566,Was the subject fasting?,,6,N,text,1,,N,C66742,NY,N;Y,No;Yes,Single,,,LBFAST,LBFAST,
2025-12-31,C38037,BILIURIN,CDASHIG,2-3,,LB,BILIURIN_VERTICAL,Vertical,Local Processing,Bilirubin Concentration in Urine (Vertical),BILI_LBORRES,LBORRES,C70856,,Bilirubin,7,Y,decimal,8,2.0,N,,,,,,,,LBORRES;LBTESTCD;LBTEST,LBORRES when LBTESTCD = BILI,
2025-12-31,C38037,BILIURIN,CDASHIG,2-3,,LB,BILIURIN_VERTICAL,Vertical,Local Processing,Bilirubin Concentration in Urine (Vertical),BILI_LBORRESU,LBORRESU,C48207,,Unit,8,Y,text,20,,N,C71620,UNIT,mg/dL;mg/L;mmol/L;umol/L,mg/dL;mg/L;mmol/L;umol/L,Single,,,LBORRESU;LBTESTCD;LBTEST,LBORRESU when LBTESTCD = BILI,
2025-12-31,C38037,BILIURIN,CDASHIG,2-3,,LB,BILIURIN_VERTICAL,Vertical,Local Processing,Bilirubin Concentration in Urine (Vertical),BILI_LBORNRLO,LBORNRLO,,,Normal Range Lower Limit,9,N,decimal,8,2.0,N,,,,,,,,LBORNRLO,LBORNRLO,
2025-12-31,C38037,BILIURIN,CDASHIG,2-3,,LB,BILIURIN_VERTICAL,Vertical,Local Processing,Bilirubin Concentration in Urine (Vertical),BILI_LBORNRHI,LBORNRHI,,,Normal Range Upper Limit,10,N,decimal,8,2.0,N,,,,,,,,LBORNRHI,LBORNRHI,
2025-12-31,C38037,BILIURIN,CDASHIG,2-3,,LB,BILIURIN_VERTICAL,Vertical,Local Processing,Bilirubin Concentration in Urine (Vertical),BILI_LBCLSIG,LBCLSIG,,Was this result clinically significant?,,11,N,text,1,,N,C66742,NY,N;Y,No;Yes,Single,,,LBCLSIG,LBCLSIG,
2025-12-31,C174314,BLYCEBLD,CDASHIG,2-3,,LB,BLYCEBLD_VERTICAL,Vertical,Local Processing,B-Lymphocytes in Blood (Vertical),BLYCE_LBCAT,LBCAT,,,Lab Panel Name,1,N,text,100,,Y,,,,,,HEMATOLOGY,,LBCAT,LBCAT = HEMATOLOGY,
2025-12-31,C174314,BLYCEBLD,CDASHIG,2-3,,LB,BLYCEBLD_VERTICAL,Vertical,Local Processing,B-Lymphocytes in Blood (Vertical),BLYCE_LBSCAT,LBSCAT,,,Lab Sub-Panel Name,2,N,text,100,,Y,,,,,,,,LBSCAT,LBSCAT,
2025-12-31,C174314,BLYCEBLD,CDASHIG,2-3,,LB,BLYCEBLD_VERTICAL,Vertical,Local Processing,B-Lymphocytes in Blood (Vertical),BLYCE_LBNAM,LBNAM,,What was the name of the laboratory used?,,3,N,text,200,,N,,,,,,,,LBNAM,LBNAM,
2025-12-31,C174314,BLYCEBLD,CDASHIG,2-3,,LB,BLYCEBLD_VERTICAL,Vertical,Local Processing,B-Lymphocytes in Blood (Vertical),BLYCE_LBDAT,LBDAT,C82515,,Specimen Collection Date,4,N,date,10,,N,,,,,,,,LBDTC,LBDTC,
2025-12-31,C174314,BLYCEBLD,CDASHIG,2-3,,LB,BLYCEBLD_VERTICAL,Vertical,Local Processing,B-Lymphocytes in Blood (Vertical),BLYCE_LBSPEC,LBSPEC,C70713,,Specimen Material,5,Y,text,100,,N,C78734,SPECTYPE,,,,BLOOD,C12434,LBSPEC,LBSPEC = BLOOD,
2025-12-31,C174314,BLYCEBLD,CDASHIG,2-3,,LB,BLYCEBLD_VERTICAL,Vertical,Local Processing,B-Lymphocytes in Blood (Vertical),BLYCE_LBFAST,LBFAST,C93566,Was the subject fasting?,,6,N,text,1,,N,C66742,NY,N;Y,No;Yes,Single,,,LBFAST,LBFAST,
2025-12-31,C174314,BLYCEBLD,CDASHIG,2-3,,LB,BLYCEBLD_VERTICAL,Vertical,Local Processing,B-Lymphocytes in Blood (Vertical),BLYCE_LBORRES,LBORRES,C70856,,B-Lymphocytes,7,Y,decimal,8,2.0,N,,,,,,,,LBORRES;LBTESTCD;LBTEST,LBORRES when LBTESTCD = BLYCE,
2025-12-31,C174314,BLYCEBLD,CDASHIG,2-3,,LB,BLYCEBLD_VERTICAL,Vertical,Local Processing,B-Lymphocytes in Blood (Vertical),BLYCE_LBORRESU,LBORRESU,C67391,,Unit,8,Y,text,20,,N,C71620,UNIT,10^9/L;10^6/L,10^9/L;10^6/L,Single,,,LBORRESU;LBTESTCD;LBTEST,LBORRESU when LBTESTCD = BLYCE,
2025-12-31,C174314,BLYCEBLD,CDASHIG,2-3,,LB,BLYCEBLD_VERTICAL,Vertical,Local Processing,B-Lymphocytes in Blood (Vertical),BLYCE_LBORNRLO,LBORNRLO,,,Normal Range Lower Limit,9,N,decimal,8,2.0,N,,,,,,,,LBORNRLO,LBORNRLO,
2025-12-31,C174314,BLYCEBLD,CDASHIG,2-3,,LB,BLYCEBLD_VERTICAL,Vertical,Local Processing,B-Lymphocytes in Blood (Vertical),BLYCE_LBORNRHI,LBORNRHI,,,Normal Range Upper Limit,10,N,decimal,8,2.0,N,,,,,,,,LBORNRHI,LBORNRHI,
2025-12-31,C174314,BLYCEBLD,CDASHIG,2-3,,LB,BLYCEBLD_VERTICAL,Vertical,Local Processing,B-Lymphocytes in Blood (Vertical),BLYCE_LBCLSIG,LBCLSIG,,Was this result clinically significant?,,11,N,text,1,,N,C66742,NY,N;Y,No;Yes,Single,,,LBCLSIG,LBCLSIG,
2025-12-31,C64488,CABLD,CDASHIG,2-3,,LB,CABLD_VERTICAL,Vertical,Local Processing,Calcium Concentration in Blood (Vertical),CA_LBCAT,LBCAT,,,Lab Panel Name,1,N,text,100,,Y,,,,,,CHEMISTRY,,LBCAT,LBCAT = CHEMISTRY,
2025-12-31,C64488,CABLD,CDASHIG,2-3,,LB,CABLD_VERTICAL,Vertical,Local Processing,Calcium Concentration in Blood (Vertical),CA_LBSCAT,LBSCAT,,,Lab Sub-Panel Name,2,N,text,100,,Y,,,,,,,,LBSCAT,LBSCAT,
2025-12-31,C64488,CABLD,CDASHIG,2-3,,LB,CABLD_VERTICAL,Vertical,Local Processing,Calcium Concentration in Blood (Vertical),CA_LBNAM,LBNAM,,What was the name of the laboratory used?,,3,N,text,200,,N,,,,,,,,LBNAM,LBNAM,
2025-12-31,C64488,CABLD,CDASHIG,2-3,,LB,CABLD_VERTICAL,Vertical,Local Processing,Calcium Concentration in Blood (Vertical),CA_LBDAT,LBDAT,C82515,,Specimen Collection Date,4,N,date,10,,N,,,,,,,,LBDTC,LBDTC,
2025-12-31,C64488,CABLD,CDASHIG,2-3,,LB,CABLD_VERTICAL,Vertical,Local Processing,Calcium Concentration in Blood (Vertical),CA_LBSPEC,LBSPEC,C70713,,Specimen Material,5,Y,text,100,,N,C78734,SPECTYPE,,,,BLOOD,C12434,LBSPEC,LBSPEC = BLOOD,
2025-12-31,C64488,CABLD,CDASHIG,2-3,,LB,CABLD_VERTICAL,Vertical,Local Processing,Calcium Concentration in Blood (Vertical),CA_LBFAST,LBFAST,C93566,Was the subject fasting?,,6,N,text,1,,N,C66742,NY,N;Y,No;Yes,Single,,,LBFAST,LBFAST,
2025-12-31,C64488,CABLD,CDASHIG,2-3,,LB,CABLD_VERTICAL,Vertical,Local Processing,Calcium Concentration in Blood (Vertical),CA_LBORRES,LBORRES,C70856,,Calcium,7,Y,decimal,8,2.0,N,,,,,,,,LBORRES;LBTESTCD;LBTEST,LBORRES when LBTESTCD = CA,
2025-12-31,C64488,CABLD,CDASHIG,2-3,,LB,CABLD_VERTICAL,Vertical,Local Processing,Calcium Concentration in Blood (Vertical),CA_LBORRESU,LBORRESU,C48207,,Unit,8,Y,text,20,,N,C71620,UNIT,mg/dL;mg/L;mmol/L;mEq/dL;mEq/L,mg/dL;mg/L;mmol/L;mEq/dL;mEq/L,Single,,,LBORRESU;LBTESTCD;LBTEST,LBORRESU when LBTESTCD = CA,
2025-12-31,C64488,CABLD,CDASHIG,2-3,,LB,CABLD_VERTICAL,Vertical,Local Processing,Calcium Concentration in Blood (Vertical),CA_LBORNRLO,LBORNRLO,,,Normal Range Lower Limit,9,N,decimal,8,2.0,N,,,,,,,,LBORNRLO,LBORNRLO,
2025-12-31,C64488,CABLD,CDASHIG,2-3,,LB,CABLD_VERTICAL,Vertical,Local Processing,Calcium Concentration in Blood (Vertical),CA_LBORNRHI,LBORNRHI,,,Normal Range Upper Limit,10,N,decimal,8,2.0,N,,,,,,,,LBORNRHI,LBORNRHI,
2025-12-31,C64488,CABLD,CDASHIG,2-3,,LB,CABLD_VERTICAL,Vertical,Local Processing,Calcium Concentration in Blood (Vertical),CA_LBCLSIG,LBCLSIG,,Was this result clinically significant?,,11,N,text,1,,N,C66742,NY,N;Y,No;Yes,Single,,,LBCLSIG,LBCLSIG,
2025-12-31,C96591,CARBXHGB,CDASHIG,2-3,,LB,CARBXHGB_VERTICAL,Vertical,Local Processing,Carboxyhemoglobin Concentration in Blood (Vertical),CARBXHGB_LBCAT,LBCAT,,,Lab Panel Name,1,N,text,100,,Y,,,,,,HEMATOLOGY,,LBCAT,LBCAT = HEMATOLOGY,
2025-12-31,C96591,CARBXHGB,CDASHIG,2-3,,LB,CARBXHGB_VERTICAL,Vertical,Local Processing,Carboxyhemoglobin Concentration in Blood (Vertical),CARBXHGB_LBSCAT,LBSCAT,,,Lab Sub-Panel Name,2,N,text,100,,Y,,,,,,,,LBSCAT,LBSCAT,
2025-12-31,C96591,CARBXHGB,CDASHIG,2-3,,LB,CARBXHGB_VERTICAL,Vertical,Local Processing,Carboxyhemoglobin Concentration in Blood (Vertical),CARBXHGB_LBNAM,LBNAM,,What was the name of the laboratory used?,,3,N,text,200,,N,,,,,,,,LBNAM,LBNAM,
2025-12-31,C96591,CARBXHGB,CDASHIG,2-3,,LB,CARBXHGB_VERTICAL,Vertical,Local Processing,Carboxyhemoglobin Concentration in Blood (Vertical),CARBXHGB_LBDAT,LBDAT,C82515,,Specimen Collection Date,4,N,date,10,,N,,,,,,,,LBDTC,LBDTC,
2025-12-31,C96591,CARBXHGB,CDASHIG,2-3,,LB,CARBXHGB_VERTICAL,Vertical,Local Processing,Carboxyhemoglobin Concentration in Blood (Vertical),CARBXHGB_LBSPEC,LBSPEC,C70713,,Specimen Material,5,Y,text,100,,N,C78734,SPECTYPE,,,,BLOOD,C12434,LBSPEC,LBSPEC = BLOOD,
2025-12-31,C96591,CARBXHGB,CDASHIG,2-3,,LB,CARBXHGB_VERTICAL,Vertical,Local Processing,Carboxyhemoglobin Concentration in Blood (Vertical),CARBXHGB_LBORRES,LBORRES,C70856,,Carboxyhemoglobin,6,Y,decimal,8,2.0,N,,,,,,,,LBORRES;LBTESTCD;LBTEST,LBORRES when LBTESTCD = CARBXHGB,
2025-12-31,C96591,CARBXHGB,CDASHIG,2-3,,LB,CARBXHGB_VERTICAL,Vertical,Local Processing,Carboxyhemoglobin Concentration in Blood (Vertical),CARBXHGB_LBORRESU,LBORRESU,C64571,,Unit,7,Y,text,20,,N,C71620,UNIT,,,,g/dL,C64783,LBORRESU;LBTESTCD;LBTEST,LBORRESU = g/dL when LBTESTCD = CARBXHGB,
2025-12-31,C96591,CARBXHGB,CDASHIG,2-3,,LB,CARBXHGB_VERTICAL,Vertical,Local Processing,Carboxyhemoglobin Concentration in Blood (Vertical),CARBXHGB_LBORNRLO,LBORNRLO,,,Normal Range Lower Limit,8,N,decimal,8,2.0,N,,,,,,,,LBORNRLO,LBORNRLO,
2025-12-31,C96591,CARBXHGB,CDASHIG,2-3,,LB,CARBXHGB_VERTICAL,Vertical,Local Processing,Carboxyhemoglobin Concentration in Blood (Vertical),CARBXHGB_LBORNRHI,LBORNRHI,,,Normal Range Upper Limit,9,N,decimal,8,2.0,N,,,,,,,,LBORNRHI,LBORNRHI,
2025-12-31,C96591,CARBXHGB,CDASHIG,2-3,,LB,CARBXHGB_VERTICAL,Vertical,Local Processing,Carboxyhemoglobin Concentration in Blood (Vertical),CARBXHGB_LBCLSIG,LBCLSIG,,Was this result clinically significant?,,10,N,text,1,,N,C66742,NY,N;Y,No;Yes,Single,,,LBCLSIG,LBCLSIG,
2025-12-31,C82525,,CDASHIG,2-3,,LB,CHEMISTRY_PERF,,,Laboratory Test Performed - Chemistry,LBCAT,LBCAT,,,Lab Panel Name,1,Y,text,100,,N,,,,,,CHEMISTRY,,LBCAT,LBCAT = CHEMISTRY,
2025-12-31,C82525,,CDASHIG,2-3,,LB,CHEMISTRY_PERF,,,Laboratory Test Performed - Chemistry,LBPERF,LBPERF,C82525,Was the sample collected?,,2,Y,text,1,,N,C66742,NY,N;Y,No;Yes,Single,,,LBSTAT,[NOT SUBMITTED]; LBSTAT = NOT DONE when LBTESTCD = LBALL,
2025-12-31,C82525,,CDASHIG,2-3,,LB,CHEMISTRY_PERF,,,Laboratory Test Performed - Chemistry,LBDAT,LBDAT,C82515,,Specimen Collection Date,3,N,date,10,,N,,,,,,,,LBDTC,LBDTC,
2025-12-31,C105586,CHOLSERPL,CDASHIG,2-3,,LB,CHOLSERPL_VERTICAL,Vertical,Local Processing,Cholesterol in Serum or Plasma (Vertical),CHOL_LBCAT,LBCAT,,,Lab Panel Name,1,N,text,100,,Y,,,,,,CHEMISTRY,,LBCAT,LBCAT = CHEMISTRY,
2025-12-31,C105586,CHOLSERPL,CDASHIG,2-3,,LB,CHOLSERPL_VERTICAL,Vertical,Local Processing,Cholesterol in Serum or Plasma (Vertical),CHOL_LBSCAT,LBSCAT,,,Lab Sub-Panel Name,2,N,text,100,,Y,,,,,,,,LBSCAT,LBSCAT,
2025-12-31,C105586,CHOLSERPL,CDASHIG,2-3,,LB,CHOLSERPL_VERTICAL,Vertical,Local Processing,Cholesterol in Serum or Plasma (Vertical),CHOL_LBNAM,LBNAM,,What was the name of the laboratory used?,,3,N,text,200,,N,,,,,,,,LBNAM,LBNAM,
2025-12-31,C105586,CHOLSERPL,CDASHIG,2-3,,LB,CHOLSERPL_VERTICAL,Vertical,Local Processing,Cholesterol in Serum or Plasma (Vertical),CHOL_LBDAT,LBDAT,C82515,,Specimen Collection Date,4,N,date,10,,N,,,,,,,,LBDTC,LBDTC,
2025-12-31,C105586,CHOLSERPL,CDASHIG,2-3,,LB,CHOLSERPL_VERTICAL,Vertical,Local Processing,Cholesterol in Serum or Plasma (Vertical),CHOL_LBSPEC,LBSPEC,C70713,,Specimen Material,5,Y,text,100,,N,C78734,SPECTYPE,,,,SERUM OR PLASMA,C105706,LBSPEC,LBSPEC,
2025-12-31,C105586,CHOLSERPL,CDASHIG,2-3,,LB,CHOLSERPL_VERTICAL,Vertical,Local Processing,Cholesterol in Serum or Plasma (Vertical),CHOL_LBFAST,LBFAST,C93566,Was the subject fasting?,,6,N,text,1,,N,C66742,NY,N;Y,No;Yes,Single,,,LBFAST,LBFAST,
2025-12-31,C105586,CHOLSERPL,CDASHIG,2-3,,LB,CHOLSERPL_VERTICAL,Vertical,Local Processing,Cholesterol in Serum or Plasma (Vertical),CHOL_LBORRES,LBORRES,C70856,,Cholesterol,7,Y,decimal,8,2.0,N,,,,,,,,LBORRES;LBTESTCD;LBTEST,LBORRES when LBTESTCD = CHOL,
2025-12-31,C105586,CHOLSERPL,CDASHIG,2-3,,LB,CHOLSERPL_VERTICAL,Vertical,Local Processing,Cholesterol in Serum or Plasma (Vertical),CHOL_LBORRESU,LBORRESU,C48207,,Unit,8,Y,text,20,,N,C71620,UNIT,mg/dL;mg/L;mmol/L;umol/L,mg/dL;mg/L;mmol/L;umol/L,Single,,,LBORRESU;LBTESTCD;LBTEST,LBORRESU when LBTESTCD = CHOL,
2025-12-31,C105586,CHOLSERPL,CDASHIG,2-3,,LB,CHOLSERPL_VERTICAL,Vertical,Local Processing,Cholesterol in Serum or Plasma (Vertical),CHOL_LBORNRLO,LBORNRLO,,,Normal Range Lower Limit,9,N,decimal,8,2.0,N,,,,,,,,LBORNRLO,LBORNRLO,
2025-12-31,C105586,CHOLSERPL,CDASHIG,2-3,,LB,CHOLSERPL_VERTICAL,Vertical,Local Processing,Cholesterol in Serum or Plasma (Vertical),CHOL_LBORNRHI,LBORNRHI,,,Normal Range Upper Limit,10,N,decimal,8,2.0,N,,,,,,,,LBORNRHI,LBORNRHI,
2025-12-31,C105586,CHOLSERPL,CDASHIG,2-3,,LB,CHOLSERPL_VERTICAL,Vertical,Local Processing,Cholesterol in Serum or Plasma (Vertical),CHOL_LBCLSIG,LBCLSIG,,Was this result clinically significant?,,11,N,text,1,,N,C66742,NY,N;Y,No;Yes,Single,,,LBCLSIG,LBCLSIG,
2025-12-31,C64495,CLBLD,CDASHIG,2-3,,LB,CLBLD_VERTICAL,Vertical,Local Processing,Chloride Concentration in Blood (Vertical),CL_LBCAT,LBCAT,,,Lab Panel Name,1,N,text,100,,Y,,,,,,CHEMISTRY,,LBCAT,LBCAT = CHEMISTRY,
2025-12-31,C64495,CLBLD,CDASHIG,2-3,,LB,CLBLD_VERTICAL,Vertical,Local Processing,Chloride Concentration in Blood (Vertical),CL_LBSCAT,LBSCAT,,,Lab Sub-Panel Name,2,N,text,100,,Y,,,,,,,,LBSCAT,LBSCAT,
2025-12-31,C64495,CLBLD,CDASHIG,2-3,,LB,CLBLD_VERTICAL,Vertical,Local Processing,Chloride Concentration in Blood (Vertical),CL_LBNAM,LBNAM,,What was the name of the laboratory used?,,3,N,text,200,,N,,,,,,,,LBNAM,LBNAM,
2025-12-31,C64495,CLBLD,CDASHIG,2-3,,LB,CLBLD_VERTICAL,Vertical,Local Processing,Chloride Concentration in Blood (Vertical),CL_LBDAT,LBDAT,C82515,,Specimen Collection Date,4,N,date,10,,N,,,,,,,,LBDTC,LBDTC,
2025-12-31,C64495,CLBLD,CDASHIG,2-3,,LB,CLBLD_VERTICAL,Vertical,Local Processing,Chloride Concentration in Blood (Vertical),CL_LBSPEC,LBSPEC,C70713,,Specimen Material,5,Y,text,100,,N,C78734,SPECTYPE,,,,BLOOD,C12434,LBSPEC,LBSPEC = BLOOD,
2025-12-31,C64495,CLBLD,CDASHIG,2-3,,LB,CLBLD_VERTICAL,Vertical,Local Processing,Chloride Concentration in Blood (Vertical),CL_LBFAST,LBFAST,C93566,Was the subject fasting?,,6,N,text,1,,N,C66742,NY,N;Y,No;Yes,Single,,,LBFAST,LBFAST,
2025-12-31,C64495,CLBLD,CDASHIG,2-3,,LB,CLBLD_VERTICAL,Vertical,Local Processing,Chloride Concentration in Blood (Vertical),CL_LBORRES,LBORRES,C70856,,Chloride,7,Y,decimal,8,2.0,N,,,,,,,,LBORRES;LBTESTCD;LBTEST,LBORRES when LBTESTCD = CL,
2025-12-31,C64495,CLBLD,CDASHIG,2-3,,LB,CLBLD_VERTICAL,Vertical,Local Processing,Chloride Concentration in Blood (Vertical),CL_LBORRESU,LBORRESU,C64567,,Unit,8,Y,text,20,,N,C71620,UNIT,mEq/L;mEq/dL;mmol/L,mEq/L;mEq/dL;mmol/L,Single,,,LBORRESU;LBTESTCD;LBTEST,LBORRESU when LBTESTCD = CL,
2025-12-31,C64495,CLBLD,CDASHIG,2-3,,LB,CLBLD_VERTICAL,Vertical,Local Processing,Chloride Concentration in Blood (Vertical),CL_LBORNRLO,LBORNRLO,,,Normal Range Lower Limit,9,N,decimal,8,2.0,N,,,,,,,,LBORNRLO,LBORNRLO,
2025-12-31,C64495,CLBLD,CDASHIG,2-3,,LB,CLBLD_VERTICAL,Vertical,Local Processing,Chloride Concentration in Blood (Vertical),CL_LBORNRHI,LBORNRHI,,,Normal Range Upper Limit,10,N,decimal,8,2.0,N,,,,,,,,LBORNRHI,LBORNRHI,
2025-12-31,C64495,CLBLD,CDASHIG,2-3,,LB,CLBLD_VERTICAL,Vertical,Local Processing,Chloride Concentration in Blood (Vertical),CL_LBCLSIG,LBCLSIG,,Was this result clinically significant?,,11,N,text,1,,N,C66742,NY,N;Y,No;Yes,Single,,,LBCLSIG,LBCLSIG,
2025-12-31,C139084,CMONOXBLD,CDASHIG,2-3,,LB,CMONOXBLD_VERTICAL,Vertical,Local Processing,Carbon Monoxide Concentration in Blood (Vertical),CMONOX_LBCAT,LBCAT,,,Lab Panel Name,1,N,text,100,,Y,,,,,,CHEMISTRY,,LBCAT,LBCAT = CHEMISTRY,
2025-12-31,C139084,CMONOXBLD,CDASHIG,2-3,,LB,CMONOXBLD_VERTICAL,Vertical,Local Processing,Carbon Monoxide Concentration in Blood (Vertical),CMONOX_LBSCAT,LBSCAT,,,Lab Sub-Panel Name,2,N,text,100,,Y,,,,,,,,LBSCAT,LBSCAT,
2025-12-31,C139084,CMONOXBLD,CDASHIG,2-3,,LB,CMONOXBLD_VERTICAL,Vertical,Local Processing,Carbon Monoxide Concentration in Blood (Vertical),CMONOX_LBNAM,LBNAM,,What was the name of the laboratory used?,,3,N,text,200,,N,,,,,,,,LBNAM,LBNAM,
2025-12-31,C139084,CMONOXBLD,CDASHIG,2-3,,LB,CMONOXBLD_VERTICAL,Vertical,Local Processing,Carbon Monoxide Concentration in Blood (Vertical),CMONOX_LBDAT,LBDAT,C82515,,Specimen Collection Date,4,N,date,10,,N,,,,,,,,LBDTC,LBDTC,
2025-12-31,C139084,CMONOXBLD,CDASHIG,2-3,,LB,CMONOXBLD_VERTICAL,Vertical,Local Processing,Carbon Monoxide Concentration in Blood (Vertical),CMONOX_LBSPEC,LBSPEC,C70713,,Specimen Material,5,Y,text,100,,N,C78734,SPECTYPE,,,,BLOOD,C12434,LBSPEC,LBSPEC = BLOOD,
2025-12-31,C139084,CMONOXBLD,CDASHIG,2-3,,LB,CMONOXBLD_VERTICAL,Vertical,Local Processing,Carbon Monoxide Concentration in Blood (Vertical),CMONOX_LBORRES,LBORRES,C70856,,Carbon Monoxide,6,Y,decimal,8,2.0,N,,,,,,,,LBORRES;LBTESTCD;LBTEST,LBORRES when LBTESTCD = CMONOX,
2025-12-31,C139084,CMONOXBLD,CDASHIG,2-3,,LB,CMONOXBLD_VERTICAL,Vertical,Local Processing,Carbon Monoxide Concentration in Blood (Vertical),CMONOX_LBORRESU,LBORRESU,C25709,,Unit,7,Y,text,20,,N,C71620,UNIT,mEq/L;mEq/dL;mmol/L,mEq/L;mEq/dL;mmol/L,Single,,,LBORRESU;LBTESTCD;LBTEST,LBORRESU when LBTESTCD = CMONOX,
2025-12-31,C139084,CMONOXBLD,CDASHIG,2-3,,LB,CMONOXBLD_VERTICAL,Vertical,Local Processing,Carbon Monoxide Concentration in Blood (Vertical),CMONOX_LBORNRLO,LBORNRLO,,,Normal Range Lower Limit,8,N,decimal,8,2.0,N,,,,,,,,LBORNRLO,LBORNRLO,
2025-12-31,C139084,CMONOXBLD,CDASHIG,2-3,,LB,CMONOXBLD_VERTICAL,Vertical,Local Processing,Carbon Monoxide Concentration in Blood (Vertical),CMONOX_LBORNRHI,LBORNRHI,,,Normal Range Upper Limit,9,N,decimal,8,2.0,N,,,,,,,,LBORNRHI,LBORNRHI,
2025-12-31,C139084,CMONOXBLD,CDASHIG,2-3,,LB,CMONOXBLD_VERTICAL,Vertical,Local Processing,Carbon Monoxide Concentration in Blood (Vertical),CMONOX_LBCLSIG,LBCLSIG,,Was this result clinically significant?,,10,N,text,1,,N,C66742,NY,N;Y,No;Yes,Single,,,LBCLSIG,LBCLSIG,
2025-12-31,C64545,CO2BLD,CDASHIG,2-3,,LB,CO2BLD_VERTICAL,Vertical,Local Processing,Carbon Dioxide Concentration in Blood (Vertical),CO2_LBCAT,LBCAT,,,Lab Panel Name,1,N,text,100,,Y,,,,,,CHEMISTRY,,LBCAT,LBCAT = CHEMISTRY,
2025-12-31,C64545,CO2BLD,CDASHIG,2-3,,LB,CO2BLD_VERTICAL,Vertical,Local Processing,Carbon Dioxide Concentration in Blood (Vertical),CO2_LBSCAT,LBSCAT,,,Lab Sub-Panel Name,2,N,text,100,,Y,,,,,,,,LBSCAT,LBSCAT,
2025-12-31,C64545,CO2BLD,CDASHIG,2-3,,LB,CO2BLD_VERTICAL,Vertical,Local Processing,Carbon Dioxide Concentration in Blood (Vertical),CO2_LBNAM,LBNAM,,What was the name of the laboratory used?,,3,N,text,200,,N,,,,,,,,LBNAM,LBNAM,
2025-12-31,C64545,CO2BLD,CDASHIG,2-3,,LB,CO2BLD_VERTICAL,Vertical,Local Processing,Carbon Dioxide Concentration in Blood (Vertical),CO2_LBDAT,LBDAT,C82515,,Specimen Collection Date,4,N,date,10,,N,,,,,,,,LBDTC,LBDTC,
2025-12-31,C64545,CO2BLD,CDASHIG,2-3,,LB,CO2BLD_VERTICAL,Vertical,Local Processing,Carbon Dioxide Concentration in Blood (Vertical),CO2_LBSPEC,LBSPEC,C70713,,Specimen Material,5,Y,text,100,,N,C78734,SPECTYPE,,,,BLOOD,C12434,LBSPEC,LBSPEC = BLOOD,
2025-12-31,C64545,CO2BLD,CDASHIG,2-3,,LB,CO2BLD_VERTICAL,Vertical,Local Processing,Carbon Dioxide Concentration in Blood (Vertical),CO2_LBFAST,LBFAST,C93566,Was the subject fasting?,,6,N,text,1,,N,C66742,NY,N;Y,No;Yes,Single,,,LBFAST,LBFAST,
2025-12-31,C64545,CO2BLD,CDASHIG,2-3,,LB,CO2BLD_VERTICAL,Vertical,Local Processing,Carbon Dioxide Concentration in Blood (Vertical),CO2_LBORRES,LBORRES,C70856,,Carbon Dioxide,7,Y,decimal,8,2.0,N,,,,,,,,LBORRES;LBTESTCD;LBTEST,LBORRES when LBTESTCD = CO2,
2025-12-31,C64545,CO2BLD,CDASHIG,2-3,,LB,CO2BLD_VERTICAL,Vertical,Local Processing,Carbon Dioxide Concentration in Blood (Vertical),CO2_LBORRESU,LBORRESU,C64567,,Unit,8,Y,text,20,,N,C71620,UNIT,mEq/L;mEq/dL;mmol/L,mEq/L;mEq/dL;mmol/L,Single,,,LBORRESU;LBTESTCD;LBTEST,LBORRESU when LBTESTCD = CO2,
2025-12-31,C64545,CO2BLD,CDASHIG,2-3,,LB,CO2BLD_VERTICAL,Vertical,Local Processing,Carbon Dioxide Concentration in Blood (Vertical),CO2_LBORNRLO,LBORNRLO,,,Normal Range Lower Limit,9,N,decimal,8,2.0,N,,,,,,,,LBORNRLO,LBORNRLO,
2025-12-31,C64545,CO2BLD,CDASHIG,2-3,,LB,CO2BLD_VERTICAL,Vertical,Local Processing,Carbon Dioxide Concentration in Blood (Vertical),CO2_LBORNRHI,LBORNRHI,,,Normal Range Upper Limit,10,N,decimal,8,2.0,N,,,,,,,,LBORNRHI,LBORNRHI,
2025-12-31,C64545,CO2BLD,CDASHIG,2-3,,LB,CO2BLD_VERTICAL,Vertical,Local Processing,Carbon Dioxide Concentration in Blood (Vertical),CO2_LBCLSIG,LBCLSIG,,Was this result clinically significant?,,11,N,text,1,,N,C66742,NY,N;Y,No;Yes,Single,,,LBCLSIG,LBCLSIG,
2025-12-31,C64546,COLORURIN,CDASHIG,2-3,,LB,COLORURIN_VERTICAL,Vertical,Local Processing,Color Assessment in Urine (Vertical),COLOR_LBCAT,LBCAT,,,Lab Panel Name,1,N,text,100,,Y,,,,,,URINALYSIS,,LBCAT,LBCAT = URINALYSIS,
2025-12-31,C64546,COLORURIN,CDASHIG,2-3,,LB,COLORURIN_VERTICAL,Vertical,Local Processing,Color Assessment in Urine (Vertical),COLOR_LBSCAT,LBSCAT,,,Lab Sub-Panel Name,2,N,text,100,,Y,,,,,,,,LBSCAT,LBSCAT,
2025-12-31,C64546,COLORURIN,CDASHIG,2-3,,LB,COLORURIN_VERTICAL,Vertical,Local Processing,Color Assessment in Urine (Vertical),COLOR_LBNAM,LBNAM,,What was the name of the laboratory used?,,3,N,text,200,,N,,,,,,,,LBNAM,LBNAM,
2025-12-31,C64546,COLORURIN,CDASHIG,2-3,,LB,COLORURIN_VERTICAL,Vertical,Local Processing,Color Assessment in Urine (Vertical),COLOR_LBDAT,LBDAT,C82515,,Specimen Collection Date,4,N,date,10,,N,,,,,,,,LBDTC,LBDTC,
2025-12-31,C64546,COLORURIN,CDASHIG,2-3,,LB,COLORURIN_VERTICAL,Vertical,Local Processing,Color Assessment in Urine (Vertical),COLOR_LBSPEC,LBSPEC,C70713,,Specimen Material,5,Y,text,100,,N,C78734,SPECTYPE,,,,URINE,C13283,LBSPEC,LBSPEC = URINE,
2025-12-31,C64546,COLORURIN,CDASHIG,2-3,,LB,COLORURIN_VERTICAL,Vertical,Local Processing,Color Assessment in Urine (Vertical),COLOR_LBORRES,LBORRES,C70856,,Color,6,Y,decimal,8,2.0,N,,,,,,,,LBORRES;LBTESTCD;LBTEST,LBORRES when LBTESTCD = COLOR,
2025-12-31,C64546,COLORURIN,CDASHIG,2-3,,LB,COLORURIN_VERTICAL,Vertical,Local Processing,Color Assessment in Urine (Vertical),COLOR_LBORNRLO,LBORNRLO,,,Normal Range Lower Limit,7,N,decimal,8,2.0,N,,,,,,,,LBORNRLO,LBORNRLO,
2025-12-31,C64546,COLORURIN,CDASHIG,2-3,,LB,COLORURIN_VERTICAL,Vertical,Local Processing,Color Assessment in Urine (Vertical),COLOR_LBORNRHI,LBORNRHI,,,Normal Range Upper Limit,8,N,decimal,8,2.0,N,,,,,,,,LBORNRHI,LBORNRHI,
2025-12-31,C64546,COLORURIN,CDASHIG,2-3,,LB,COLORURIN_VERTICAL,Vertical,Local Processing,Color Assessment in Urine (Vertical),COLOR_LBCLSIG,LBCLSIG,,Was this result clinically significant?,,9,N,text,1,,N,C66742,NY,N;Y,No;Yes,Single,,,LBCLSIG,LBCLSIG,
2025-12-31,C92249,COTININEURIN,CDASHIG,2-3,,LB,COTININEURIN_VERTICAL,Vertical,Local Processing,Cotinine Concentration in Urine (Vertical),COTININE_LBCAT,LBCAT,,,Lab Panel Name,1,N,text,100,,Y,,,,,,CHEMISTRY,,LBCAT,LBCAT = CHEMISTRY,
2025-12-31,C92249,COTININEURIN,CDASHIG,2-3,,LB,COTININEURIN_VERTICAL,Vertical,Local Processing,Cotinine Concentration in Urine (Vertical),COTININE_LBSCAT,LBSCAT,,,Lab Sub-Panel Name,2,N,text,100,,Y,,,,,,,,LBSCAT,LBSCAT,
2025-12-31,C92249,COTININEURIN,CDASHIG,2-3,,LB,COTININEURIN_VERTICAL,Vertical,Local Processing,Cotinine Concentration in Urine (Vertical),COTININE_LBNAM,LBNAM,,What was the name of the laboratory used?,,3,N,text,200,,N,,,,,,,,LBNAM,LBNAM,
2025-12-31,C92249,COTININEURIN,CDASHIG,2-3,,LB,COTININEURIN_VERTICAL,Vertical,Local Processing,Cotinine Concentration in Urine (Vertical),COTININE_LBDAT,LBDAT,C82515,,Specimen Collection Date,4,N,date,10,,N,,,,,,,,LBDTC,LBDTC,
2025-12-31,C92249,COTININEURIN,CDASHIG,2-3,,LB,COTININEURIN_VERTICAL,Vertical,Local Processing,Cotinine Concentration in Urine (Vertical),COTININE_LBSPEC,LBSPEC,C70713,,Specimen Material,5,Y,text,100,,N,C78734,SPECTYPE,,,,URINE,C13283,LBSPEC,LBSPEC = URINE,
2025-12-31,C92249,COTININEURIN,CDASHIG,2-3,,LB,COTININEURIN_VERTICAL,Vertical,Local Processing,Cotinine Concentration in Urine (Vertical),COTININE_LBORRES,LBORRES,C70856,,Cotinine,6,Y,decimal,8,2.0,N,,,,,,,,LBORRES;LBTESTCD;LBTEST,LBORRES when LBTESTCD = COTININE,
2025-12-31,C92249,COTININEURIN,CDASHIG,2-3,,LB,COTININEURIN_VERTICAL,Vertical,Local Processing,Cotinine Concentration in Urine (Vertical),COTININE_LBORRESU,LBORRESU,C48207,,Unit,7,Y,text,20,,N,C71620,UNIT,nmol/L;ug/L,nmol/L;ug/L,Single,,,LBORRESU;LBTESTCD;LBTEST,LBORRESU when LBTESTCD = COTININE,
2025-12-31,C92249,COTININEURIN,CDASHIG,2-3,,LB,COTININEURIN_VERTICAL,Vertical,Local Processing,Cotinine Concentration in Urine (Vertical),COTININE_LBORNRLO,LBORNRLO,,,Normal Range Lower Limit,8,N,decimal,8,2.0,N,,,,,,,,LBORNRLO,LBORNRLO,
2025-12-31,C92249,COTININEURIN,CDASHIG,2-3,,LB,COTININEURIN_VERTICAL,Vertical,Local Processing,Cotinine Concentration in Urine (Vertical),COTININE_LBORNRHI,LBORNRHI,,,Normal Range Upper Limit,9,N,decimal,8,2.0,N,,,,,,,,LBORNRHI,LBORNRHI,
2025-12-31,C92249,COTININEURIN,CDASHIG,2-3,,LB,COTININEURIN_VERTICAL,Vertical,Local Processing,Cotinine Concentration in Urine (Vertical),COTININE_LBCLSIG,LBCLSIG,,Was this result clinically significant?,,10,N,text,1,,N,C66742,NY,N;Y,No;Yes,Single,,,LBCLSIG,LBCLSIG,
2025-12-31,C64547,CREATSERPL,CDASHIG,2-3,,LB,CREATSERPL_VERTICAL,Vertical,Local Processing,Creatinine Concentration in Serum/Plasma (Vertical),CREAT_LBCAT,LBCAT,,,Lab Panel Name,1,N,text,100,,Y,,,,,,CHEMISTRY,,LBCAT,LBCAT = CHEMISTRY,
2025-12-31,C64547,CREATSERPL,CDASHIG,2-3,,LB,CREATSERPL_VERTICAL,Vertical,Local Processing,Creatinine Concentration in Serum/Plasma (Vertical),CREAT_LBSCAT,LBSCAT,,,Lab Sub-Panel Name,2,N,text,100,,Y,,,,,,,,LBSCAT,LBSCAT,
2025-12-31,C64547,CREATSERPL,CDASHIG,2-3,,LB,CREATSERPL_VERTICAL,Vertical,Local Processing,Creatinine Concentration in Serum/Plasma (Vertical),CREAT_LBNAM,LBNAM,,What was the name of the laboratory used?,,3,N,text,200,,N,,,,,,,,LBNAM,LBNAM,
2025-12-31,C64547,CREATSERPL,CDASHIG,2-3,,LB,CREATSERPL_VERTICAL,Vertical,Local Processing,Creatinine Concentration in Serum/Plasma (Vertical),CREAT_LBDAT,LBDAT,C82515,,Specimen Collection Date,4,N,date,10,,N,,,,,,,,LBDTC,LBDTC,
2025-12-31,C64547,CREATSERPL,CDASHIG,2-3,,LB,CREATSERPL_VERTICAL,Vertical,Local Processing,Creatinine Concentration in Serum/Plasma (Vertical),CREAT_LBSPEC,LBSPEC,C70713,,Specimen Material,5,Y,text,100,,N,C78734,SPECTYPE,,,,SERUM OR PLASMA,C105706,LBSPEC,LBSPEC,
2025-12-31,C64547,CREATSERPL,CDASHIG,2-3,,LB,CREATSERPL_VERTICAL,Vertical,Local Processing,Creatinine Concentration in Serum/Plasma (Vertical),CREAT_LBFAST,LBFAST,C93566,Was the subject fasting?,,6,N,text,1,,N,C66742,NY,N;Y,No;Yes,Single,,,LBFAST,LBFAST,
2025-12-31,C64547,CREATSERPL,CDASHIG,2-3,,LB,CREATSERPL_VERTICAL,Vertical,Local Processing,Creatinine Concentration in Serum/Plasma (Vertical),CREAT_LBORRES,LBORRES,C70856,,Creatinine,7,Y,decimal,8,2.0,N,,,,,,,,LBORRES;LBTESTCD;LBTEST,LBORRES when LBTESTCD = CREAT,
2025-12-31,C64547,CREATSERPL,CDASHIG,2-3,,LB,CREATSERPL_VERTICAL,Vertical,Local Processing,Creatinine Concentration in Serum/Plasma (Vertical),CREAT_LBORRESU,LBORRESU,C48207,,Unit,8,Y,text,20,,N,C71620,UNIT,mg/dL;mg/L;mmol/L;umol/L,mg/dL;mg/L;mmol/L;umol/L,Single,,,LBORRESU;LBTESTCD;LBTEST,LBORRESU when LBTESTCD = CREAT,
2025-12-31,C64547,CREATSERPL,CDASHIG,2-3,,LB,CREATSERPL_VERTICAL,Vertical,Local Processing,Creatinine Concentration in Serum/Plasma (Vertical),CREAT_LBORNRLO,LBORNRLO,,,Normal Range Lower Limit,9,N,decimal,8,2.0,N,,,,,,,,LBORNRLO,LBORNRLO,
2025-12-31,C64547,CREATSERPL,CDASHIG,2-3,,LB,CREATSERPL_VERTICAL,Vertical,Local Processing,Creatinine Concentration in Serum/Plasma (Vertical),CREAT_LBORNRHI,LBORNRHI,,,Normal Range Upper Limit,10,N,decimal,8,2.0,N,,,,,,,,LBORNRHI,LBORNRHI,
2025-12-31,C64547,CREATSERPL,CDASHIG,2-3,,LB,CREATSERPL_VERTICAL,Vertical,Local Processing,Creatinine Concentration in Serum/Plasma (Vertical),CREAT_LBCLSIG,LBCLSIG,,Was this result clinically significant?,,11,N,text,1,,N,C66742,NY,N;Y,No;Yes,Single,,,LBCLSIG,LBCLSIG,
2025-12-31,C64547,CREATURIN,CDASHIG,2-3,,LB,CREATURIN_VERTICAL,Vertical,Local Processing,Creatinine Concentration in Urine (Vertical),CREAT_LBCAT,LBCAT,,,Lab Panel Name,1,N,text,100,,Y,,,,,,CHEMISTRY,,LBCAT,LBCAT = CHEMISTRY,
2025-12-31,C64547,CREATURIN,CDASHIG,2-3,,LB,CREATURIN_VERTICAL,Vertical,Local Processing,Creatinine Concentration in Urine (Vertical),CREAT_LBSCAT,LBSCAT,,,Lab Sub-Panel Name,2,N,text,100,,Y,,,,,,,,LBSCAT,LBSCAT,
2025-12-31,C64547,CREATURIN,CDASHIG,2-3,,LB,CREATURIN_VERTICAL,Vertical,Local Processing,Creatinine Concentration in Urine (Vertical),CREAT_LBNAM,LBNAM,,What was the name of the laboratory used?,,3,N,text,200,,N,,,,,,,,LBNAM,LBNAM,
2025-12-31,C64547,CREATURIN,CDASHIG,2-3,,LB,CREATURIN_VERTICAL,Vertical,Local Processing,Creatinine Concentration in Urine (Vertical),CREAT_LBDAT,LBDAT,C82515,,Specimen Collection Date,4,N,date,10,,N,,,,,,,,LBDTC,LBDTC,
2025-12-31,C64547,CREATURIN,CDASHIG,2-3,,LB,CREATURIN_VERTICAL,Vertical,Local Processing,Creatinine Concentration in Urine (Vertical),CREAT_LBSPEC,LBSPEC,C70713,,Specimen Material,5,Y,text,100,,N,C78734,SPECTYPE,,,,URINE,C13283,LBSPEC,LBSPEC = URINE,
2025-12-31,C64547,CREATURIN,CDASHIG,2-3,,LB,CREATURIN_VERTICAL,Vertical,Local Processing,Creatinine Concentration in Urine (Vertical),CREAT_LBFAST,LBFAST,C93566,Was the subject fasting?,,6,N,text,1,,N,C66742,NY,N;Y,No;Yes,Single,,,LBFAST,LBFAST,
2025-12-31,C64547,CREATURIN,CDASHIG,2-3,,LB,CREATURIN_VERTICAL,Vertical,Local Processing,Creatinine Concentration in Urine (Vertical),CREAT_LBORRES,LBORRES,C70856,,Creatinine,7,Y,decimal,8,2.0,N,,,,,,,,LBORRES;LBTESTCD;LBTEST,LBORRES when LBTESTCD = CREAT,
2025-12-31,C64547,CREATURIN,CDASHIG,2-3,,LB,CREATURIN_VERTICAL,Vertical,Local Processing,Creatinine Concentration in Urine (Vertical),CREAT_LBORRESU,LBORRESU,C48207,,Unit,8,Y,text,20,,N,C71620,UNIT,mg/dL;mg/L;mmol/L;umol/L,mg/dL;mg/L;mmol/L;umol/L,Single,,,LBORRESU;LBTESTCD;LBTEST,LBORRESU when LBTESTCD = CREAT,
2025-12-31,C64547,CREATURIN,CDASHIG,2-3,,LB,CREATURIN_VERTICAL,Vertical,Local Processing,Creatinine Concentration in Urine (Vertical),CREAT_LBORNRLO,LBORNRLO,,,Normal Range Lower Limit,9,N,decimal,8,2.0,N,,,,,,,,LBORNRLO,LBORNRLO,
2025-12-31,C64547,CREATURIN,CDASHIG,2-3,,LB,CREATURIN_VERTICAL,Vertical,Local Processing,Creatinine Concentration in Urine (Vertical),CREAT_LBORNRHI,LBORNRHI,,,Normal Range Upper Limit,10,N,decimal,8,2.0,N,,,,,,,,LBORNRHI,LBORNRHI,
2025-12-31,C64547,CREATURIN,CDASHIG,2-3,,LB,CREATURIN_VERTICAL,Vertical,Local Processing,Creatinine Concentration in Urine (Vertical),CREAT_LBCLSIG,LBCLSIG,,Was this result clinically significant?,,11,N,text,1,,N,C66742,NY,N;Y,No;Yes,Single,,,LBCLSIG,LBCLSIG,
2025-12-31,C64548,CRPSERPL,CDASHIG,2-3,,LB,CRPSERPL_VERTICAL,Vertical,Local Processing,C Reactive Protein in Serum or Plasma (Vertical),CRP_LBCAT,LBCAT,,,Lab Panel Name,1,N,text,100,,Y,,,,,,CHEMISTRY,,LBCAT,LBCAT = CHEMISTRY,
2025-12-31,C64548,CRPSERPL,CDASHIG,2-3,,LB,CRPSERPL_VERTICAL,Vertical,Local Processing,C Reactive Protein in Serum or Plasma (Vertical),CRP_LBSCAT,LBSCAT,,,Lab Sub-Panel Name,2,N,text,100,,Y,,,,,,,,LBSCAT,LBSCAT,
2025-12-31,C64548,CRPSERPL,CDASHIG,2-3,,LB,CRPSERPL_VERTICAL,Vertical,Local Processing,C Reactive Protein in Serum or Plasma (Vertical),CRP_LBNAM,LBNAM,,What was the name of the laboratory used?,,3,N,text,200,,N,,,,,,,,LBNAM,LBNAM,
2025-12-31,C64548,CRPSERPL,CDASHIG,2-3,,LB,CRPSERPL_VERTICAL,Vertical,Local Processing,C Reactive Protein in Serum or Plasma (Vertical),CRP_LBDAT,LBDAT,C82515,,Specimen Collection Date,4,N,date,10,,N,,,,,,,,LBDTC,LBDTC,
2025-12-31,C64548,CRPSERPL,CDASHIG,2-3,,LB,CRPSERPL_VERTICAL,Vertical,Local Processing,C Reactive Protein in Serum or Plasma (Vertical),CRP_LBSPEC,LBSPEC,C70713,,Specimen Material,5,Y,text,100,,N,C78734,SPECTYPE,,,,SERUM OR PLASMA,C105706,LBSPEC,LBSPEC,
2025-12-31,C64548,CRPSERPL,CDASHIG,2-3,,LB,CRPSERPL_VERTICAL,Vertical,Local Processing,C Reactive Protein in Serum or Plasma (Vertical),CRP_LBFAST,LBFAST,C93566,Was the subject fasting?,,6,N,text,1,,N,C66742,NY,N;Y,No;Yes,Single,,,LBFAST,LBFAST,
2025-12-31,C64548,CRPSERPL,CDASHIG,2-3,,LB,CRPSERPL_VERTICAL,Vertical,Local Processing,C Reactive Protein in Serum or Plasma (Vertical),CRP_LBORRES,LBORRES,C70856,,C Reactive Protein,7,Y,decimal,8,2.0,N,,,,,,,,LBORRES;LBTESTCD;LBTEST,LBORRES when LBTESTCD = CRP,
2025-12-31,C64548,CRPSERPL,CDASHIG,2-3,,LB,CRPSERPL_VERTICAL,Vertical,Local Processing,C Reactive Protein in Serum or Plasma (Vertical),CRP_LBORRESU,LBORRESU,C48207,,Unit,8,Y,text,20,,N,C71620,UNIT,nmol/L;mg/L;mg/dL;ug/dL,nmol/L;mg/L;mg/dL;ug/dL,Single,,,LBORRESU;LBTESTCD;LBTEST,LBORRESU when LBTESTCD = CRP,
2025-12-31,C64548,CRPSERPL,CDASHIG,2-3,,LB,CRPSERPL_VERTICAL,Vertical,Local Processing,C Reactive Protein in Serum or Plasma (Vertical),CRP_LBORNRLO,LBORNRLO,,,Normal Range Lower Limit,9,N,decimal,8,2.0,N,,,,,,,,LBORNRLO,LBORNRLO,
2025-12-31,C64548,CRPSERPL,CDASHIG,2-3,,LB,CRPSERPL_VERTICAL,Vertical,Local Processing,C Reactive Protein in Serum or Plasma (Vertical),CRP_LBORNRHI,LBORNRHI,,,Normal Range Upper Limit,10,N,decimal,8,2.0,N,,,,,,,,LBORNRHI,LBORNRHI,
2025-12-31,C64548,CRPSERPL,CDASHIG,2-3,,LB,CRPSERPL_VERTICAL,Vertical,Local Processing,C Reactive Protein in Serum or Plasma (Vertical),CRP_LBCLSIG,LBCLSIG,,Was this result clinically significant?,,11,N,text,1,,N,C66742,NY,N;Y,No;Yes,Single,,,LBCLSIG,LBCLSIG,
2025-12-31,C64550,EOSBLD,CDASHIG,2-3,,LB,EOSBLD_VERTICAL,Vertical,Local Processing,Eosinophil Count in Blood (Vertical),EOS_LBCAT,LBCAT,,,Lab Panel Name,1,N,text,100,,Y,,,,,,HEMATOLOGY,,LBCAT,LBCAT = HEMATOLOGY,
2025-12-31,C64550,EOSBLD,CDASHIG,2-3,,LB,EOSBLD_VERTICAL,Vertical,Local Processing,Eosinophil Count in Blood (Vertical),EOS_LBSCAT,LBSCAT,,,Lab Sub-Panel Name,2,N,text,100,,Y,,,,,,,,LBSCAT,LBSCAT,
2025-12-31,C64550,EOSBLD,CDASHIG,2-3,,LB,EOSBLD_VERTICAL,Vertical,Local Processing,Eosinophil Count in Blood (Vertical),EOS_LBNAM,LBNAM,,What was the name of the laboratory used?,,3,N,text,200,,N,,,,,,,,LBNAM,LBNAM,
2025-12-31,C64550,EOSBLD,CDASHIG,2-3,,LB,EOSBLD_VERTICAL,Vertical,Local Processing,Eosinophil Count in Blood (Vertical),EOS_LBDAT,LBDAT,C82515,,Specimen Collection Date,4,N,date,10,,N,,,,,,,,LBDTC,LBDTC,
2025-12-31,C64550,EOSBLD,CDASHIG,2-3,,LB,EOSBLD_VERTICAL,Vertical,Local Processing,Eosinophil Count in Blood (Vertical),EOS_LBSPEC,LBSPEC,C70713,,Specimen Material,5,Y,text,100,,N,C78734,SPECTYPE,,,,BLOOD,C12434,LBSPEC,LBSPEC = BLOOD,
2025-12-31,C64550,EOSBLD,CDASHIG,2-3,,LB,EOSBLD_VERTICAL,Vertical,Local Processing,Eosinophil Count in Blood (Vertical),EOS_LBFAST,LBFAST,C93566,Was the subject fasting?,,6,N,text,1,,N,C66742,NY,N;Y,No;Yes,Single,,,LBFAST,LBFAST,
2025-12-31,C64550,EOSBLD,CDASHIG,2-3,,LB,EOSBLD_VERTICAL,Vertical,Local Processing,Eosinophil Count in Blood (Vertical),EOS_LBORRES,LBORRES,C70856,,Eosinophils,7,Y,decimal,8,2.0,N,,,,,,,,LBORRES;LBTESTCD;LBTEST,LBORRES when LBTESTCD = EOS,
2025-12-31,C64550,EOSBLD,CDASHIG,2-3,,LB,EOSBLD_VERTICAL,Vertical,Local Processing,Eosinophil Count in Blood (Vertical),EOS_LBORRESU,LBORRESU,C67391,,Unit,8,Y,text,20,,N,C71620,UNIT,,,,10^9/L,C67255,LBORRESU;LBTESTCD;LBTEST,LBORRESU = 10^9/L when LBTESTCD = EOS,
2025-12-31,C64550,EOSBLD,CDASHIG,2-3,,LB,EOSBLD_VERTICAL,Vertical,Local Processing,Eosinophil Count in Blood (Vertical),EOS_LBORNRLO,LBORNRLO,,,Normal Range Lower Limit,9,N,decimal,8,2.0,N,,,,,,,,LBORNRLO,LBORNRLO,
2025-12-31,C64550,EOSBLD,CDASHIG,2-3,,LB,EOSBLD_VERTICAL,Vertical,Local Processing,Eosinophil Count in Blood (Vertical),EOS_LBORNRHI,LBORNRHI,,,Normal Range Upper Limit,10,N,decimal,8,2.0,N,,,,,,,,LBORNRHI,LBORNRHI,
2025-12-31,C64550,EOSBLD,CDASHIG,2-3,,LB,EOSBLD_VERTICAL,Vertical,Local Processing,Eosinophil Count in Blood (Vertical),EOS_LBCLSIG,LBCLSIG,,Was this result clinically significant?,,11,N,text,1,,N,C66742,NY,N;Y,No;Yes,Single,,,LBCLSIG,LBCLSIG,
2025-12-31,C74737,FERRITINSERPL,CDASHIG,2-3,,LB,FERRITINSERPL_VERTICAL,Vertical,Local Processing,Ferritin in Serum or Plasma (Vertical),FERRITIN_LBCAT,LBCAT,,,Lab Panel Name,1,N,text,100,,Y,,,,,,CHEMISTRY,,LBCAT,LBCAT = CHEMISTRY,
2025-12-31,C74737,FERRITINSERPL,CDASHIG,2-3,,LB,FERRITINSERPL_VERTICAL,Vertical,Local Processing,Ferritin in Serum or Plasma (Vertical),FERRITIN_LBSCAT,LBSCAT,,,Lab Sub-Panel Name,2,N,text,100,,Y,,,,,,,,LBSCAT,LBSCAT,
2025-12-31,C74737,FERRITINSERPL,CDASHIG,2-3,,LB,FERRITINSERPL_VERTICAL,Vertical,Local Processing,Ferritin in Serum or Plasma (Vertical),FERRITIN_LBNAM,LBNAM,,What was the name of the laboratory used?,,3,N,text,200,,N,,,,,,,,LBNAM,LBNAM,
2025-12-31,C74737,FERRITINSERPL,CDASHIG,2-3,,LB,FERRITINSERPL_VERTICAL,Vertical,Local Processing,Ferritin in Serum or Plasma (Vertical),FERRITIN_LBDAT,LBDAT,C82515,,Specimen Collection Date,4,N,date,10,,N,,,,,,,,LBDTC,LBDTC,
2025-12-31,C74737,FERRITINSERPL,CDASHIG,2-3,,LB,FERRITINSERPL_VERTICAL,Vertical,Local Processing,Ferritin in Serum or Plasma (Vertical),FERRITIN_LBSPEC,LBSPEC,C70713,,Specimen Material,5,Y,text,100,,N,C78734,SPECTYPE,,,,SERUM OR PLASMA,C105706,LBSPEC,LBSPEC,
2025-12-31,C74737,FERRITINSERPL,CDASHIG,2-3,,LB,FERRITINSERPL_VERTICAL,Vertical,Local Processing,Ferritin in Serum or Plasma (Vertical),FERRITIN_LBFAST,LBFAST,C93566,Was the subject fasting?,,6,N,text,1,,N,C66742,NY,N;Y,No;Yes,Single,,,LBFAST,LBFAST,
2025-12-31,C74737,FERRITINSERPL,CDASHIG,2-3,,LB,FERRITINSERPL_VERTICAL,Vertical,Local Processing,Ferritin in Serum or Plasma (Vertical),FERRITIN_LBORRES,LBORRES,C70856,,Ferritin,7,Y,decimal,8,2.0,N,,,,,,,,LBORRES;LBTESTCD;LBTEST,LBORRES when LBTESTCD = FERRITIN,
2025-12-31,C74737,FERRITINSERPL,CDASHIG,2-3,,LB,FERRITINSERPL_VERTICAL,Vertical,Local Processing,Ferritin in Serum or Plasma (Vertical),FERRITIN_LBORRESU,LBORRESU,C48207,,Unit,8,Y,text,20,,N,C71620,UNIT,ug/L;ug/dL;pmol/L,ug/L;ug/dL;pmol/L,Single,,,LBORRESU;LBTESTCD;LBTEST,LBORRESU when LBTESTCD = FERRITIN,
2025-12-31,C74737,FERRITINSERPL,CDASHIG,2-3,,LB,FERRITINSERPL_VERTICAL,Vertical,Local Processing,Ferritin in Serum or Plasma (Vertical),FERRITIN_LBORNRLO,LBORNRLO,,,Normal Range Lower Limit,9,N,decimal,8,2.0,N,,,,,,,,LBORNRLO,LBORNRLO,
2025-12-31,C74737,FERRITINSERPL,CDASHIG,2-3,,LB,FERRITINSERPL_VERTICAL,Vertical,Local Processing,Ferritin in Serum or Plasma (Vertical),FERRITIN_LBORNRHI,LBORNRHI,,,Normal Range Upper Limit,10,N,decimal,8,2.0,N,,,,,,,,LBORNRHI,LBORNRHI,
2025-12-31,C74737,FERRITINSERPL,CDASHIG,2-3,,LB,FERRITINSERPL_VERTICAL,Vertical,Local Processing,Ferritin in Serum or Plasma (Vertical),FERRITIN_LBCLSIG,LBCLSIG,,Was this result clinically significant?,,11,N,text,1,,N,C66742,NY,N;Y,No;Yes,Single,,,LBCLSIG,LBCLSIG,
2025-12-31,C64847,GGTSERPL,CDASHIG,2-3,,LB,GGTSERPL_VERTICAL,Vertical,Local Processing,Gamma Glutamyl Transpeptidase Concentration in Serum or Plasma (Vertical),GGT_LBCAT,LBCAT,,,Lab Panel Name,1,N,text,100,,Y,,,,,,CHEMISTRY,,LBCAT,LBCAT = CHEMISTRY,
2025-12-31,C64847,GGTSERPL,CDASHIG,2-3,,LB,GGTSERPL_VERTICAL,Vertical,Local Processing,Gamma Glutamyl Transpeptidase Concentration in Serum or Plasma (Vertical),GGT_LBSCAT,LBSCAT,,,Lab Sub-Panel Name,2,N,text,100,,Y,,,,,,,,LBSCAT,LBSCAT,
2025-12-31,C64847,GGTSERPL,CDASHIG,2-3,,LB,GGTSERPL_VERTICAL,Vertical,Local Processing,Gamma Glutamyl Transpeptidase Concentration in Serum or Plasma (Vertical),GGT_LBNAM,LBNAM,,What was the name of the laboratory used?,,3,N,text,200,,N,,,,,,,,LBNAM,LBNAM,
2025-12-31,C64847,GGTSERPL,CDASHIG,2-3,,LB,GGTSERPL_VERTICAL,Vertical,Local Processing,Gamma Glutamyl Transpeptidase Concentration in Serum or Plasma (Vertical),GGT_LBDAT,LBDAT,C82515,,Specimen Collection Date,4,N,date,10,,N,,,,,,,,LBDTC,LBDTC,
2025-12-31,C64847,GGTSERPL,CDASHIG,2-3,,LB,GGTSERPL_VERTICAL,Vertical,Local Processing,Gamma Glutamyl Transpeptidase Concentration in Serum or Plasma (Vertical),GGT_LBSPEC,LBSPEC,C70713,,Specimen Material,5,Y,text,100,,N,C78734,SPECTYPE,,,,SERUM OR PLASMA,C105706,LBSPEC,LBSPEC,
2025-12-31,C64847,GGTSERPL,CDASHIG,2-3,,LB,GGTSERPL_VERTICAL,Vertical,Local Processing,Gamma Glutamyl Transpeptidase Concentration in Serum or Plasma (Vertical),GGT_LBFAST,LBFAST,C93566,Was the subject fasting?,,6,N,text,1,,N,C66742,NY,N;Y,No;Yes,Single,,,LBFAST,LBFAST,
2025-12-31,C64847,GGTSERPL,CDASHIG,2-3,,LB,GGTSERPL_VERTICAL,Vertical,Local Processing,Gamma Glutamyl Transpeptidase Concentration in Serum or Plasma (Vertical),GGT_LBORRES,LBORRES,C70856,,Gamma Glutamyl Transferase,7,Y,decimal,8,2.0,N,,,,,,,,LBORRES;LBTESTCD;LBTEST,LBORRES when LBTESTCD = GGT,
2025-12-31,C64847,GGTSERPL,CDASHIG,2-3,,LB,GGTSERPL_VERTICAL,Vertical,Local Processing,Gamma Glutamyl Transpeptidase Concentration in Serum or Plasma (Vertical),GGT_LBORRESU,LBORRESU,C67365,,Unit,8,Y,text,20,,N,C71620,UNIT,U/L;IU/L;nkat/L;ukat/L,U/L;IU/L;nkat/L;ukat/L,Single,,,LBORRESU;LBTESTCD;LBTEST,LBORRESU when LBTESTCD = GGT,
2025-12-31,C64847,GGTSERPL,CDASHIG,2-3,,LB,GGTSERPL_VERTICAL,Vertical,Local Processing,Gamma Glutamyl Transpeptidase Concentration in Serum or Plasma (Vertical),GGT_LBORNRLO,LBORNRLO,,,Normal Range Lower Limit,9,N,decimal,8,2.0,N,,,,,,,,LBORNRLO,LBORNRLO,
2025-12-31,C64847,GGTSERPL,CDASHIG,2-3,,LB,GGTSERPL_VERTICAL,Vertical,Local Processing,Gamma Glutamyl Transpeptidase Concentration in Serum or Plasma (Vertical),GGT_LBORNRHI,LBORNRHI,,,Normal Range Upper Limit,10,N,decimal,8,2.0,N,,,,,,,,LBORNRHI,LBORNRHI,
2025-12-31,C64847,GGTSERPL,CDASHIG,2-3,,LB,GGTSERPL_VERTICAL,Vertical,Local Processing,Gamma Glutamyl Transpeptidase Concentration in Serum or Plasma (Vertical),GGT_LBCLSIG,LBCLSIG,,Was this result clinically significant?,,11,N,text,1,,N,C66742,NY,N;Y,No;Yes,Single,,,LBCLSIG,LBCLSIG,
2025-12-31,C105585,GLUCBLD,CDASHIG,2-3,,LB,GLUCBLD_VERTICAL,Vertical,Local Processing,Glucose Concentration in Blood (Vertical),GLUC_LBCAT,LBCAT,,,Lab Panel Name,1,N,text,100,,Y,,,,,,CHEMISTRY,,LBCAT,LBCAT = CHEMISTRY,
2025-12-31,C105585,GLUCBLD,CDASHIG,2-3,,LB,GLUCBLD_VERTICAL,Vertical,Local Processing,Glucose Concentration in Blood (Vertical),GLUC_LBSCAT,LBSCAT,,,Lab Sub-Panel Name,2,N,text,100,,Y,,,,,,,,LBSCAT,LBSCAT,
2025-12-31,C105585,GLUCBLD,CDASHIG,2-3,,LB,GLUCBLD_VERTICAL,Vertical,Local Processing,Glucose Concentration in Blood (Vertical),GLUC_LBNAM,LBNAM,,What was the name of the laboratory used?,,3,N,text,200,,N,,,,,,,,LBNAM,LBNAM,
2025-12-31,C105585,GLUCBLD,CDASHIG,2-3,,LB,GLUCBLD_VERTICAL,Vertical,Local Processing,Glucose Concentration in Blood (Vertical),GLUC_LBDAT,LBDAT,C82515,,Specimen Collection Date,4,N,date,10,,N,,,,,,,,LBDTC,LBDTC,
2025-12-31,C105585,GLUCBLD,CDASHIG,2-3,,LB,GLUCBLD_VERTICAL,Vertical,Local Processing,Glucose Concentration in Blood (Vertical),GLUC_LBSPEC,LBSPEC,C70713,,Specimen Material,5,Y,text,100,,N,C78734,SPECTYPE,,,,BLOOD,C12434,LBSPEC,LBSPEC = BLOOD,
2025-12-31,C105585,GLUCBLD,CDASHIG,2-3,,LB,GLUCBLD_VERTICAL,Vertical,Local Processing,Glucose Concentration in Blood (Vertical),GLUC_LBFAST,LBFAST,C93566,Was the subject fasting?,,6,N,text,1,,N,C66742,NY,N;Y,No;Yes,Single,,,LBFAST,LBFAST,
2025-12-31,C105585,GLUCBLD,CDASHIG,2-3,,LB,GLUCBLD_VERTICAL,Vertical,Local Processing,Glucose Concentration in Blood (Vertical),GLUC_LBORRES,LBORRES,C70856,,Glucose,7,Y,decimal,8,2.0,N,,,,,,,,LBORRES;LBTESTCD;LBTEST,LBORRES when LBTESTCD = GLUC,
2025-12-31,C105585,GLUCBLD,CDASHIG,2-3,,LB,GLUCBLD_VERTICAL,Vertical,Local Processing,Glucose Concentration in Blood (Vertical),GLUC_LBORRESU,LBORRESU,C48207,,Unit,8,Y,text,20,,N,C71620,UNIT,mg/dL;mmol/L,mg/dL;mmol/L,Single,,,LBORRESU;LBTESTCD;LBTEST,LBORRESU when LBTESTCD = GLUC,
2025-12-31,C105585,GLUCBLD,CDASHIG,2-3,,LB,GLUCBLD_VERTICAL,Vertical,Local Processing,Glucose Concentration in Blood (Vertical),GLUC_LBMETHOD,LBMETHOD,C82535,,Method,9,N,text,100,,N,C85492,METHOD,,,,DIPSTICK MEASUREMENT METHOD,C178142,LBMETHOD,LBMETHOD = DIPSTICK MEASUREMENT METHOD,
2025-12-31,C105585,GLUCBLD,CDASHIG,2-3,,LB,GLUCBLD_VERTICAL,Vertical,Local Processing,Glucose Concentration in Blood (Vertical),GLUC_LBORNRLO,LBORNRLO,,,Normal Range Lower Limit,10,N,decimal,8,2.0,N,,,,,,,,LBORNRLO,LBORNRLO,
2025-12-31,C105585,GLUCBLD,CDASHIG,2-3,,LB,GLUCBLD_VERTICAL,Vertical,Local Processing,Glucose Concentration in Blood (Vertical),GLUC_LBORNRHI,LBORNRHI,,,Normal Range Upper Limit,11,N,decimal,8,2.0,N,,,,,,,,LBORNRHI,LBORNRHI,
2025-12-31,C105585,GLUCBLD,CDASHIG,2-3,,LB,GLUCBLD_VERTICAL,Vertical,Local Processing,Glucose Concentration in Blood (Vertical),GLUC_LBCLSIG,LBCLSIG,,Was this result clinically significant?,,12,N,text,1,,N,C66742,NY,N;Y,No;Yes,Single,,,LBCLSIG,LBCLSIG,
2025-12-31,C105585,GLUCUA,CDASHIG,2-3,,LB,GLUCUA_VERTICAL,Vertical,Local Processing,Glucose in Urine by Dipstickn (Vertical),GLUC_LBCAT,LBCAT,,,Lab Panel Name,1,N,text,100,,Y,,,,,,CHEMISTRY,,LBCAT,LBCAT = CHEMISTRY,
2025-12-31,C105585,GLUCUA,CDASHIG,2-3,,LB,GLUCUA_VERTICAL,Vertical,Local Processing,Glucose in Urine by Dipstickn (Vertical),GLUC_LBSCAT,LBSCAT,,,Lab Sub-Panel Name,2,N,text,100,,Y,,,,,,,,LBSCAT,LBSCAT,
2025-12-31,C105585,GLUCUA,CDASHIG,2-3,,LB,GLUCUA_VERTICAL,Vertical,Local Processing,Glucose in Urine by Dipstickn (Vertical),GLUC_LBNAM,LBNAM,,What was the name of the laboratory used?,,3,N,text,200,,N,,,,,,,,LBNAM,LBNAM,
2025-12-31,C105585,GLUCUA,CDASHIG,2-3,,LB,GLUCUA_VERTICAL,Vertical,Local Processing,Glucose in Urine by Dipstickn (Vertical),GLUC_LBDAT,LBDAT,C82515,,Specimen Collection Date,4,N,date,10,,N,,,,,,,,LBDTC,LBDTC,
2025-12-31,C105585,GLUCUA,CDASHIG,2-3,,LB,GLUCUA_VERTICAL,Vertical,Local Processing,Glucose in Urine by Dipstickn (Vertical),GLUC_LBSPEC,LBSPEC,C70713,,Specimen Material,5,Y,text,100,,N,C78734,SPECTYPE,,,,URINE,C13283,LBSPEC,LBSPEC = URINE,
2025-12-31,C105585,GLUCUA,CDASHIG,2-3,,LB,GLUCUA_VERTICAL,Vertical,Local Processing,Glucose in Urine by Dipstickn (Vertical),GLUC_LBMETHOD,LBMETHOD,C82535,,Method,6,N,text,100,,N,,,,,,TEST STRIP,C50322,LBMETHOD,LBMETHOD = TEST STRIP when LBTESTCD = GLUC,
2025-12-31,C105585,GLUCUA,CDASHIG,2-3,,LB,GLUCUA_VERTICAL,Vertical,Local Processing,Glucose in Urine by Dipstickn (Vertical),GLUC_LBFAST,LBFAST,C93566,Was the subject fasting?,,7,N,text,1,,N,C66742,NY,N;Y,No;Yes,Single,,,LBFAST,LBFAST,
2025-12-31,C105585,GLUCUA,CDASHIG,2-3,,LB,GLUCUA_VERTICAL,Vertical,Local Processing,Glucose in Urine by Dipstickn (Vertical),GLUC_LBORRES,LBORRES,C70856,,Glucose,8,Y,decimal,8,2.0,N,,,,,,,,LBORRES;LBTESTCD;LBTEST,LBORRES when LBTESTCD = GLUC,
2025-12-31,C105585,GLUCUA,CDASHIG,2-3,,LB,GLUCUA_VERTICAL,Vertical,Local Processing,Glucose in Urine by Dipstickn (Vertical),GLUC_LBORRESU,LBORRESU,C48207,,Unit,9,Y,text,20,2.0,N,C71620,UNIT,mg/dL;mmol/L;umol/L,mg/dL;mmol/L;umol/L,Single,,,LBORRESU;LBTESTCD;LBTEST,LBORRESU when LBTESTCD = GLUC,
2025-12-31,C105585,GLUCUA,CDASHIG,2-3,,LB,GLUCUA_VERTICAL,Vertical,Local Processing,Glucose in Urine by Dipstickn (Vertical),GLUC_LBORNRLO,LBORNRLO,,,Normal Range Lower Limit,10,N,decimal,8,2.0,N,,,,,,,,LBORNRLO,LBORNRLO,
2025-12-31,C105585,GLUCUA,CDASHIG,2-3,,LB,GLUCUA_VERTICAL,Vertical,Local Processing,Glucose in Urine by Dipstickn (Vertical),GLUC_LBORNRHI,LBORNRHI,,,Normal Range Upper Limit,11,N,decimal,8,2.0,N,,,,,,,,LBORNRHI,LBORNRHI,
2025-12-31,C105585,GLUCUA,CDASHIG,2-3,,LB,GLUCUA_VERTICAL,Vertical,Local Processing,Glucose in Urine by Dipstickn (Vertical),GLUC_LBCLSIG,LBCLSIG,,Was this result clinically significant?,,12,N,text,1,,N,C66742,NY,N;Y,No;Yes,Single,,,LBCLSIG,LBCLSIG,
2025-12-31,C105585,GLUCURIN,CDASHIG,2-3,,LB,GLUCURIN_VERTICAL,Vertical,Local Processing,Glucose Concentration in Urine (Vertical),GLUC_LBCAT,LBCAT,,,Lab Panel Name,1,N,text,100,,Y,,,,,,CHEMISTRY,,LBCAT,LBCAT = CHEMISTRY,
2025-12-31,C105585,GLUCURIN,CDASHIG,2-3,,LB,GLUCURIN_VERTICAL,Vertical,Local Processing,Glucose Concentration in Urine (Vertical),GLUC_LBSCAT,LBSCAT,,,Lab Sub-Panel Name,2,N,text,100,,Y,,,,,,,,LBSCAT,LBSCAT,
2025-12-31,C105585,GLUCURIN,CDASHIG,2-3,,LB,GLUCURIN_VERTICAL,Vertical,Local Processing,Glucose Concentration in Urine (Vertical),GLUC_LBNAM,LBNAM,,What was the name of the laboratory used?,,3,N,text,200,,N,,,,,,,,LBNAM,LBNAM,
2025-12-31,C105585,GLUCURIN,CDASHIG,2-3,,LB,GLUCURIN_VERTICAL,Vertical,Local Processing,Glucose Concentration in Urine (Vertical),GLUC_LBDAT,LBDAT,C82515,,Specimen Collection Date,4,N,date,10,,N,,,,,,,,LBDTC,LBDTC,
2025-12-31,C105585,GLUCURIN,CDASHIG,2-3,,LB,GLUCURIN_VERTICAL,Vertical,Local Processing,Glucose Concentration in Urine (Vertical),GLUC_LBSPEC,LBSPEC,C70713,,Specimen Material,5,Y,text,100,,N,C78734,SPECTYPE,,,,URINE,C13283,LBSPEC,LBSPEC = URINE,
2025-12-31,C105585,GLUCURIN,CDASHIG,2-3,,LB,GLUCURIN_VERTICAL,Vertical,Local Processing,Glucose Concentration in Urine (Vertical),GLUC_LBFAST,LBFAST,C93566,Was the subject fasting?,,6,N,text,1,,N,C66742,NY,N;Y,No;Yes,Single,,,LBFAST,LBFAST,
2025-12-31,C105585,GLUCURIN,CDASHIG,2-3,,LB,GLUCURIN_VERTICAL,Vertical,Local Processing,Glucose Concentration in Urine (Vertical),GLUC_LBORRES,LBORRES,C70856,,Glucose,7,Y,decimal,8,2.0,N,,,,,,,,LBORRES;LBTESTCD;LBTEST,LBORRES when LBTESTCD = GLUC,
2025-12-31,C105585,GLUCURIN,CDASHIG,2-3,,LB,GLUCURIN_VERTICAL,Vertical,Local Processing,Glucose Concentration in Urine (Vertical),GLUC_LBORRESU,LBORRESU,C48207,,Unit,8,Y,text,20,2.0,N,C71620,UNIT,mg/dL;mmol/L;umol/L,mg/dL;mmol/L;umol/L,Single,,,LBORRESU;LBTESTCD;LBTEST,LBORRESU when LBTESTCD = GLUC,
2025-12-31,C105585,GLUCURIN,CDASHIG,2-3,,LB,GLUCURIN_VERTICAL,Vertical,Local Processing,Glucose Concentration in Urine (Vertical),GLUC_LBORNRLO,LBORNRLO,,,Normal Range Lower Limit,9,N,decimal,8,2.0,N,,,,,,,,LBORNRLO,LBORNRLO,
2025-12-31,C105585,GLUCURIN,CDASHIG,2-3,,LB,GLUCURIN_VERTICAL,Vertical,Local Processing,Glucose Concentration in Urine (Vertical),GLUC_LBORNRHI,LBORNRHI,,,Normal Range Upper Limit,10,N,decimal,8,2.0,N,,,,,,,,LBORNRHI,LBORNRHI,
2025-12-31,C105585,GLUCURIN,CDASHIG,2-3,,LB,GLUCURIN_VERTICAL,Vertical,Local Processing,Glucose Concentration in Urine (Vertical),GLUC_LBCLSIG,LBCLSIG,,Was this result clinically significant?,,11,N,text,1,,N,C66742,NY,N;Y,No;Yes,Single,,,LBCLSIG,LBCLSIG,
2025-12-31,C64849,HBA1CBLD,CDASHIG,2-3,,LB,HBA1CBLD_VERTICAL,Vertical,Local Processing,Hemoglobin A1C Concentration in Blood (Vertical),HBA1C_LBCAT,LBCAT,,,Lab Panel Name,1,N,text,100,,Y,,,,,,HEMATOLOGY,,LBCAT,LBCAT = HEMATOLOGY,
2025-12-31,C64849,HBA1CBLD,CDASHIG,2-3,,LB,HBA1CBLD_VERTICAL,Vertical,Local Processing,Hemoglobin A1C Concentration in Blood (Vertical),HBA1C_LBSCAT,LBSCAT,,,Lab Sub-Panel Name,2,N,text,100,,Y,,,,,,,,LBSCAT,LBSCAT,
2025-12-31,C64849,HBA1CBLD,CDASHIG,2-3,,LB,HBA1CBLD_VERTICAL,Vertical,Local Processing,Hemoglobin A1C Concentration in Blood (Vertical),HBA1C_LBNAM,LBNAM,,What was the name of the laboratory used?,,3,N,text,200,,N,,,,,,,,LBNAM,LBNAM,
2025-12-31,C64849,HBA1CBLD,CDASHIG,2-3,,LB,HBA1CBLD_VERTICAL,Vertical,Local Processing,Hemoglobin A1C Concentration in Blood (Vertical),HBA1C_LBDAT,LBDAT,C82515,,Specimen Collection Date,4,N,date,10,,N,,,,,,,,LBDTC,LBDTC,
2025-12-31,C64849,HBA1CBLD,CDASHIG,2-3,,LB,HBA1CBLD_VERTICAL,Vertical,Local Processing,Hemoglobin A1C Concentration in Blood (Vertical),HBA1C_LBSPEC,LBSPEC,C70713,,Specimen Material,5,Y,text,100,,N,C78734,SPECTYPE,,,,BLOOD,C12434,LBSPEC,LBSPEC = BLOOD,
2025-12-31,C64849,HBA1CBLD,CDASHIG,2-3,,LB,HBA1CBLD_VERTICAL,Vertical,Local Processing,Hemoglobin A1C Concentration in Blood (Vertical),HBA1C_LBFAST,LBFAST,C93566,Was the subject fasting?,,6,N,text,1,,N,C66742,NY,N;Y,No;Yes,Single,,,LBFAST,LBFAST,
2025-12-31,C64849,HBA1CBLD,CDASHIG,2-3,,LB,HBA1CBLD_VERTICAL,Vertical,Local Processing,Hemoglobin A1C Concentration in Blood (Vertical),HBA1C_LBORRES,LBORRES,C70856,,Hemoglobin A1C,7,Y,decimal,8,2.0,N,,,,,,,,LBORRES;LBTESTCD;LBTEST,LBORRES when LBTESTCD = HBA1C,
2025-12-31,C64849,HBA1CBLD,CDASHIG,2-3,,LB,HBA1CBLD_VERTICAL,Vertical,Local Processing,Hemoglobin A1C Concentration in Blood (Vertical),HBA1C_LBORRESU,LBORRESU,,,Unit,8,Y,text,20,,N,C71620,UNIT,,,,g/dL,C64783,LBORRESU;LBTESTCD;LBTEST,LBORRESU = g/dL when LBTESTCD = HBA1C,
2025-12-31,C64849,HBA1CBLD,CDASHIG,2-3,,LB,HBA1CBLD_VERTICAL,Vertical,Local Processing,Hemoglobin A1C Concentration in Blood (Vertical),HBA1C_LBORNRLO,LBORNRLO,,,Normal Range Lower Limit,9,N,decimal,8,2.0,N,,,,,,,,LBORNRLO,LBORNRLO,
2025-12-31,C64849,HBA1CBLD,CDASHIG,2-3,,LB,HBA1CBLD_VERTICAL,Vertical,Local Processing,Hemoglobin A1C Concentration in Blood (Vertical),HBA1C_LBORNRHI,LBORNRHI,,,Normal Range Upper Limit,10,N,decimal,8,2.0,N,,,,,,,,LBORNRHI,LBORNRHI,
2025-12-31,C64849,HBA1CBLD,CDASHIG,2-3,,LB,HBA1CBLD_VERTICAL,Vertical,Local Processing,Hemoglobin A1C Concentration in Blood (Vertical),HBA1C_LBCLSIG,LBCLSIG,,Was this result clinically significant?,,11,N,text,1,,N,C66742,NY,N;Y,No;Yes,Single,,,LBCLSIG,LBCLSIG,
2025-12-31,C111207,HBA1CHGBBLD,CDASHIG,2-3,,LB,HBA1CHGBBLD_VERTICAL,Vertical,Local Processing,Hemoglobin A1C to Hemoglobin Ratio Measurement (Vertical),HBA1CHGB_LBCAT,LBCAT,,,Lab Panel Name,1,N,text,100,,Y,,,,,,HEMATOLOGY,,LBCAT,LBCAT = HEMATOLOGY,
2025-12-31,C111207,HBA1CHGBBLD,CDASHIG,2-3,,LB,HBA1CHGBBLD_VERTICAL,Vertical,Local Processing,Hemoglobin A1C to Hemoglobin Ratio Measurement (Vertical),HBA1CHGB_LBSCAT,LBSCAT,,,Lab Sub-Panel Name,2,N,text,100,,Y,,,,,,,,LBSCAT,LBSCAT,
2025-12-31,C111207,HBA1CHGBBLD,CDASHIG,2-3,,LB,HBA1CHGBBLD_VERTICAL,Vertical,Local Processing,Hemoglobin A1C to Hemoglobin Ratio Measurement (Vertical),HBA1CHGB_LBNAM,LBNAM,,What was the name of the laboratory used?,,3,N,text,200,,N,,,,,,,,LBNAM,LBNAM,
2025-12-31,C111207,HBA1CHGBBLD,CDASHIG,2-3,,LB,HBA1CHGBBLD_VERTICAL,Vertical,Local Processing,Hemoglobin A1C to Hemoglobin Ratio Measurement (Vertical),HBA1CHGB_LBDAT,LBDAT,C82515,,Specimen Collection Date,4,N,date,10,,N,,,,,,,,LBDTC,LBDTC,
2025-12-31,C111207,HBA1CHGBBLD,CDASHIG,2-3,,LB,HBA1CHGBBLD_VERTICAL,Vertical,Local Processing,Hemoglobin A1C to Hemoglobin Ratio Measurement (Vertical),HBA1CHGB_LBSPEC,LBSPEC,C70713,,Specimen Material,5,Y,text,100,,N,C78734,SPECTYPE,,,,BLOOD,C12434,LBSPEC,LBSPEC = BLOOD,
2025-12-31,C111207,HBA1CHGBBLD,CDASHIG,2-3,,LB,HBA1CHGBBLD_VERTICAL,Vertical,Local Processing,Hemoglobin A1C to Hemoglobin Ratio Measurement (Vertical),HBA1CHGB_LBFAST,LBFAST,C93566,Was the subject fasting?,,6,N,text,1,,N,C66742,NY,N;Y,No;Yes,Single,,,LBFAST,LBFAST,
2025-12-31,C111207,HBA1CHGBBLD,CDASHIG,2-3,,LB,HBA1CHGBBLD_VERTICAL,Vertical,Local Processing,Hemoglobin A1C to Hemoglobin Ratio Measurement (Vertical),HBA1CHGB_LBORRES,LBORRES,C70856,,Hemoglobin A1C/Hemoglobin,7,Y,decimal,8,2.0,N,,,,,,,,LBORRES;LBTESTCD;LBTEST,LBORRES when LBTESTCD = HBA1CHGB,
2025-12-31,C111207,HBA1CHGBBLD,CDASHIG,2-3,,LB,HBA1CHGBBLD_VERTICAL,Vertical,Local Processing,Hemoglobin A1C to Hemoglobin Ratio Measurement (Vertical),HBA1CHGB_LBORRESU,LBORRESU,,,Unit,8,Y,text,20,,N,C71620,UNIT,%;mmol/mol,%;mmol/mol,Single,,,LBORRESU;LBTESTCD;LBTEST,LBORRESU when LBTESTCD = HBA1CHGB,
2025-12-31,C111207,HBA1CHGBBLD,CDASHIG,2-3,,LB,HBA1CHGBBLD_VERTICAL,Vertical,Local Processing,Hemoglobin A1C to Hemoglobin Ratio Measurement (Vertical),HBA1CHGB_LBORNRLO,LBORNRLO,,,Normal Range Lower Limit,9,N,decimal,8,2.0,N,,,,,,,,LBORNRLO,LBORNRLO,
2025-12-31,C111207,HBA1CHGBBLD,CDASHIG,2-3,,LB,HBA1CHGBBLD_VERTICAL,Vertical,Local Processing,Hemoglobin A1C to Hemoglobin Ratio Measurement (Vertical),HBA1CHGB_LBORNRHI,LBORNRHI,,,Normal Range Upper Limit,10,N,decimal,8,2.0,N,,,,,,,,LBORNRHI,LBORNRHI,
2025-12-31,C111207,HBA1CHGBBLD,CDASHIG,2-3,,LB,HBA1CHGBBLD_VERTICAL,Vertical,Local Processing,Hemoglobin A1C to Hemoglobin Ratio Measurement (Vertical),HBA1CHGB_LBCLSIG,LBCLSIG,,Was this result clinically significant?,,11,N,text,1,,N,C66742,NY,N;Y,No;Yes,Single,,,LBCLSIG,LBCLSIG,
2025-12-31,C147355,HBCOHGB,CDASHIG,2-3,,LB,HBCOHGB_VERTICAL,Vertical,Local Processing,Carboxyhemoglobin to Total Hemoglobin in Blood (Vertical),HBCOHGB_LBCAT,LBCAT,,,Lab Panel Name,1,N,text,100,,Y,,,,,,HEMATOLOGY,,LBCAT,LBCAT = HEMATOLOGY,
2025-12-31,C147355,HBCOHGB,CDASHIG,2-3,,LB,HBCOHGB_VERTICAL,Vertical,Local Processing,Carboxyhemoglobin to Total Hemoglobin in Blood (Vertical),HBCOHGB_LBSCAT,LBSCAT,,,Lab Sub-Panel Name,2,N,text,100,,Y,,,,,,,,LBSCAT,LBSCAT,
2025-12-31,C147355,HBCOHGB,CDASHIG,2-3,,LB,HBCOHGB_VERTICAL,Vertical,Local Processing,Carboxyhemoglobin to Total Hemoglobin in Blood (Vertical),HBCOHGB_LBNAM,LBNAM,,What was the name of the laboratory used?,,3,N,text,200,,N,,,,,,,,LBNAM,LBNAM,
2025-12-31,C147355,HBCOHGB,CDASHIG,2-3,,LB,HBCOHGB_VERTICAL,Vertical,Local Processing,Carboxyhemoglobin to Total Hemoglobin in Blood (Vertical),HBCOHGB_LBDAT,LBDAT,C82515,,Specimen Collection Date,4,N,date,10,,N,,,,,,,,LBDTC,LBDTC,
2025-12-31,C147355,HBCOHGB,CDASHIG,2-3,,LB,HBCOHGB_VERTICAL,Vertical,Local Processing,Carboxyhemoglobin to Total Hemoglobin in Blood (Vertical),HBCOHGB_LBSPEC,LBSPEC,C70713,,Specimen Material,5,Y,text,100,,N,C78734,SPECTYPE,,,,BLOOD,C12434,LBSPEC,LBSPEC = BLOOD,
2025-12-31,C147355,HBCOHGB,CDASHIG,2-3,,LB,HBCOHGB_VERTICAL,Vertical,Local Processing,Carboxyhemoglobin to Total Hemoglobin in Blood (Vertical),HBCOHGB_LBORRES,LBORRES,C70856,,Carboxyhemoglobin/Total Hemoglobin,6,Y,decimal,8,2.0,N,,,,,,,,LBORRES;LBTESTCD;LBTEST,LBORRES when LBTESTCD = HBCOHGB,
2025-12-31,C147355,HBCOHGB,CDASHIG,2-3,,LB,HBCOHGB_VERTICAL,Vertical,Local Processing,Carboxyhemoglobin to Total Hemoglobin in Blood (Vertical),HBCOHGB_LBORRESU,LBORRESU,C48570,,Unit,7,Y,text,20,,N,C71620,UNIT,,,,%,C25613,LBORRESU;LBTESTCD;LBTEST,LBORRESU = % when LBTESTCD = HBCOHGB,
2025-12-31,C147355,HBCOHGB,CDASHIG,2-3,,LB,HBCOHGB_VERTICAL,Vertical,Local Processing,Carboxyhemoglobin to Total Hemoglobin in Blood (Vertical),HBCOHGB_LBORNRLO,LBORNRLO,,,Normal Range Lower Limit,8,N,decimal,8,2.0,N,,,,,,,,LBORNRLO,LBORNRLO,
2025-12-31,C147355,HBCOHGB,CDASHIG,2-3,,LB,HBCOHGB_VERTICAL,Vertical,Local Processing,Carboxyhemoglobin to Total Hemoglobin in Blood (Vertical),HBCOHGB_LBORNRHI,LBORNRHI,,,Normal Range Upper Limit,9,N,decimal,8,2.0,N,,,,,,,,LBORNRHI,LBORNRHI,
2025-12-31,C147355,HBCOHGB,CDASHIG,2-3,,LB,HBCOHGB_VERTICAL,Vertical,Local Processing,Carboxyhemoglobin to Total Hemoglobin in Blood (Vertical),HBCOHGB_LBCLSIG,LBCLSIG,,Was this result clinically significant?,,10,N,text,1,,N,C66742,NY,N;Y,No;Yes,Single,,,LBCLSIG,LBCLSIG,
2025-12-31,C64851,HCGSERPL,CDASHIG,2-3,,LB,HCGSERPL_VERTICAL,Vertical,Local Processing,HCG Presence in Serum or Plasma (Vertical),HCG_LBCAT,LBCAT,,,Lab Panel Name,1,N,text,100,,Y,,,,,,CHEMISTRY,,LBCAT,LBCAT = CHEMISTRY,
2025-12-31,C64851,HCGSERPL,CDASHIG,2-3,,LB,HCGSERPL_VERTICAL,Vertical,Local Processing,HCG Presence in Serum or Plasma (Vertical),HCG_LBSCAT,LBSCAT,,,Lab Sub-Panel Name,2,N,text,100,,Y,,,,,,,,LBSCAT,LBSCAT,
2025-12-31,C64851,HCGSERPL,CDASHIG,2-3,,LB,HCGSERPL_VERTICAL,Vertical,Local Processing,HCG Presence in Serum or Plasma (Vertical),HCG_LBNAM,LBNAM,,What was the name of the laboratory used?,,3,N,text,200,,N,,,,,,,,LBNAM,LBNAM,
2025-12-31,C64851,HCGSERPL,CDASHIG,2-3,,LB,HCGSERPL_VERTICAL,Vertical,Local Processing,HCG Presence in Serum or Plasma (Vertical),HCG_LBDAT,LBDAT,C82515,,Specimen Collection Date,4,N,date,10,,N,,,,,,,,LBDTC,LBDTC,
2025-12-31,C64851,HCGSERPL,CDASHIG,2-3,,LB,HCGSERPL_VERTICAL,Vertical,Local Processing,HCG Presence in Serum or Plasma (Vertical),HCG_LBSPEC,LBSPEC,C70713,,Specimen Material,5,Y,text,100,,N,C78734,SPECTYPE,,,,SERUM OR PLASMA,C105706,LBSPEC,LBSPEC = SERUM OR PLASMA,
2025-12-31,C64851,HCGSERPL,CDASHIG,2-3,,LB,HCGSERPL_VERTICAL,Vertical,Local Processing,HCG Presence in Serum or Plasma (Vertical),HCG_LBORRES,LBORRES,C70856,,Choriogonadotropin Beta,6,Y,decimal,8,2.0,N,,,,,,,,LBORRES;LBTESTCD;LBTEST,LBORRES when LBTESTCD = HCG,
2025-12-31,C64851,HCGSERPL,CDASHIG,2-3,,LB,HCGSERPL_VERTICAL,Vertical,Local Processing,HCG Presence in Serum or Plasma (Vertical),HCG_LBORNRLO,LBORNRLO,,,Normal Range Lower Limit,7,N,decimal,8,2.0,N,,,,,,,,LBORNRLO,LBORNRLO,
2025-12-31,C64851,HCGSERPL,CDASHIG,2-3,,LB,HCGSERPL_VERTICAL,Vertical,Local Processing,HCG Presence in Serum or Plasma (Vertical),HCG_LBORNRHI,LBORNRHI,,,Normal Range Upper Limit,8,N,decimal,8,2.0,N,,,,,,,,LBORNRHI,LBORNRHI,
2025-12-31,C64851,HCGSERPL,CDASHIG,2-3,,LB,HCGSERPL_VERTICAL,Vertical,Local Processing,HCG Presence in Serum or Plasma (Vertical),HCG_LBCLSIG,LBCLSIG,,Was this result clinically significant?,,9,N,text,1,,N,C66742,NY,N;Y,No;Yes,Single,,,LBCLSIG,LBCLSIG,
2025-12-31,C64851,HCGURIN,CDASHIG,2-3,,LB,HCGURIN_VERTICAL,Vertical,Local Processing,HCG Presence in Urine (Vertical),HCG_LBCAT,LBCAT,,,Lab Panel Name,1,N,text,100,,Y,,,,,,CHEMISTRY,,LBCAT,LBCAT = CHEMISTRY,
2025-12-31,C64851,HCGURIN,CDASHIG,2-3,,LB,HCGURIN_VERTICAL,Vertical,Local Processing,HCG Presence in Urine (Vertical),HCG_LBSCAT,LBSCAT,,,Lab Sub-Panel Name,2,N,text,100,,Y,,,,,,,,LBSCAT,LBSCAT,
2025-12-31,C64851,HCGURIN,CDASHIG,2-3,,LB,HCGURIN_VERTICAL,Vertical,Local Processing,HCG Presence in Urine (Vertical),HCG_LBNAM,LBNAM,,What was the name of the laboratory used?,,3,N,text,200,,N,,,,,,,,LBNAM,LBNAM,
2025-12-31,C64851,HCGURIN,CDASHIG,2-3,,LB,HCGURIN_VERTICAL,Vertical,Local Processing,HCG Presence in Urine (Vertical),HCG_LBDAT,LBDAT,C82515,,Specimen Collection Date,4,N,date,10,,N,,,,,,,,LBDTC,LBDTC,
2025-12-31,C64851,HCGURIN,CDASHIG,2-3,,LB,HCGURIN_VERTICAL,Vertical,Local Processing,HCG Presence in Urine (Vertical),HCG_LBSPEC,LBSPEC,C70713,,Specimen Material,5,Y,text,100,,N,C78734,SPECTYPE,,,,URINE,C13283,LBSPEC,LBSPEC = URINE,
2025-12-31,C64851,HCGURIN,CDASHIG,2-3,,LB,HCGURIN_VERTICAL,Vertical,Local Processing,HCG Presence in Urine (Vertical),HCG_LBORRES,LBORRES,C70856,,Choriogonadotropin Beta,6,Y,decimal,8,2.0,N,,,,,,,,LBORRES;LBTESTCD;LBTEST,LBORRES when LBTESTCD = HCG,
2025-12-31,C64851,HCGURIN,CDASHIG,2-3,,LB,HCGURIN_VERTICAL,Vertical,Local Processing,HCG Presence in Urine (Vertical),HCG_LBORRESU,LBORRESU,,,Unit,7,N,text,20,,N,,,,,,,,LBORRESU;LBTESTCD;LBTEST,LBORRESU when LBTESTCD = HCG,
2025-12-31,C64851,HCGURIN,CDASHIG,2-3,,LB,HCGURIN_VERTICAL,Vertical,Local Processing,HCG Presence in Urine (Vertical),HCG_LBORNRLO,LBORNRLO,,,Normal Range Lower Limit,8,N,decimal,8,2.0,N,,,,,,,,LBORNRLO,LBORNRLO,
2025-12-31,C64851,HCGURIN,CDASHIG,2-3,,LB,HCGURIN_VERTICAL,Vertical,Local Processing,HCG Presence in Urine (Vertical),HCG_LBORNRHI,LBORNRHI,,,Normal Range Upper Limit,9,N,decimal,8,2.0,N,,,,,,,,LBORNRHI,LBORNRHI,
2025-12-31,C64851,HCGURIN,CDASHIG,2-3,,LB,HCGURIN_VERTICAL,Vertical,Local Processing,HCG Presence in Urine (Vertical),HCG_LBCLSIG,LBCLSIG,,Was this result clinically significant?,,10,N,text,1,,N,C66742,NY,N;Y,No;Yes,Single,,,LBCLSIG,LBCLSIG,
2025-12-31,C64796,HCTBLD,CDASHIG,2-3,,LB,HCTBLD_VERTICAL,Vertical,Local Processing,Hematocrit of Blood (Vertical),HCT_LBCAT,LBCAT,,,Lab Panel Name,1,N,text,100,,Y,,,,,,HEMATOLOGY,,LBCAT,LBCAT = HEMATOLOGY,
2025-12-31,C64796,HCTBLD,CDASHIG,2-3,,LB,HCTBLD_VERTICAL,Vertical,Local Processing,Hematocrit of Blood (Vertical),HCT_LBSCAT,LBSCAT,,,Lab Sub-Panel Name,2,N,text,100,,Y,,,,,,,,LBSCAT,LBSCAT,
2025-12-31,C64796,HCTBLD,CDASHIG,2-3,,LB,HCTBLD_VERTICAL,Vertical,Local Processing,Hematocrit of Blood (Vertical),HCT_LBNAM,LBNAM,,What was the name of the laboratory used?,,3,N,text,200,,N,,,,,,,,LBNAM,LBNAM,
2025-12-31,C64796,HCTBLD,CDASHIG,2-3,,LB,HCTBLD_VERTICAL,Vertical,Local Processing,Hematocrit of Blood (Vertical),HCT_LBDAT,LBDAT,C82515,,Specimen Collection Date,4,N,date,10,,N,,,,,,,,LBDTC,LBDTC,
2025-12-31,C64796,HCTBLD,CDASHIG,2-3,,LB,HCTBLD_VERTICAL,Vertical,Local Processing,Hematocrit of Blood (Vertical),HCT_LBSPEC,LBSPEC,C70713,,Specimen Material,5,Y,text,100,,N,C78734,SPECTYPE,,,,BLOOD,C12434,LBSPEC,LBSPEC = BLOOD,
2025-12-31,C64796,HCTBLD,CDASHIG,2-3,,LB,HCTBLD_VERTICAL,Vertical,Local Processing,Hematocrit of Blood (Vertical),HCT_LBFAST,LBFAST,C93566,Was the subject fasting?,,6,N,text,1,,N,C66742,NY,N;Y,No;Yes,Single,,,LBFAST,LBFAST,
2025-12-31,C64796,HCTBLD,CDASHIG,2-3,,LB,HCTBLD_VERTICAL,Vertical,Local Processing,Hematocrit of Blood (Vertical),HCT_LBORRES,LBORRES,C70856,,Hematocrit,7,Y,decimal,8,2.0,N,,,,,,,,LBORRES;LBTESTCD;LBTEST,LBORRES when LBTESTCD = HCT,
2025-12-31,C64796,HCTBLD,CDASHIG,2-3,,LB,HCTBLD_VERTICAL,Vertical,Local Processing,Hematocrit of Blood (Vertical),HCT_LBORRESU,LBORRESU,C69174,,Unit,8,Y,text,20,,N,C71620,UNIT,,,,%,C25613,LBORRESU;LBTESTCD;LBTEST,LBORRESU = % when LBTESTCD = HCT,
2025-12-31,C64796,HCTBLD,CDASHIG,2-3,,LB,HCTBLD_VERTICAL,Vertical,Local Processing,Hematocrit of Blood (Vertical),HCT_LBORNRLO,LBORNRLO,,,Normal Range Lower Limit,9,N,decimal,8,2.0,N,,,,,,,,LBORNRLO,LBORNRLO,
2025-12-31,C64796,HCTBLD,CDASHIG,2-3,,LB,HCTBLD_VERTICAL,Vertical,Local Processing,Hematocrit of Blood (Vertical),HCT_LBORNRHI,LBORNRHI,,,Normal Range Upper Limit,10,N,decimal,8,2.0,N,,,,,,,,LBORNRHI,LBORNRHI,
2025-12-31,C64796,HCTBLD,CDASHIG,2-3,,LB,HCTBLD_VERTICAL,Vertical,Local Processing,Hematocrit of Blood (Vertical),HCT_LBCLSIG,LBCLSIG,,Was this result clinically significant?,,11,N,text,1,,N,C66742,NY,N;Y,No;Yes,Single,,,LBCLSIG,LBCLSIG,
2025-12-31,C105587,HDLSERPL,CDASHIG,2-3,,LB,HDLSERPL_VERTICAL,Vertical,Local Processing,HDL Cholesterol in Serum or Plasma (Vertical),HDL_LBCAT,LBCAT,,,Lab Panel Name,1,N,text,100,,Y,,,,,,CHEMISTRY,,LBCAT,LBCAT = CHEMISTRY,
2025-12-31,C105587,HDLSERPL,CDASHIG,2-3,,LB,HDLSERPL_VERTICAL,Vertical,Local Processing,HDL Cholesterol in Serum or Plasma (Vertical),HDL_LBSCAT,LBSCAT,,,Lab Sub-Panel Name,2,N,text,100,,Y,,,,,,,,LBSCAT,LBSCAT,
2025-12-31,C105587,HDLSERPL,CDASHIG,2-3,,LB,HDLSERPL_VERTICAL,Vertical,Local Processing,HDL Cholesterol in Serum or Plasma (Vertical),HDL_LBNAM,LBNAM,,What was the name of the laboratory used?,,3,N,text,200,,N,,,,,,,,LBNAM,LBNAM,
2025-12-31,C105587,HDLSERPL,CDASHIG,2-3,,LB,HDLSERPL_VERTICAL,Vertical,Local Processing,HDL Cholesterol in Serum or Plasma (Vertical),HDL_LBDAT,LBDAT,C82515,,Specimen Collection Date,4,N,date,10,,N,,,,,,,,LBDTC,LBDTC,
2025-12-31,C105587,HDLSERPL,CDASHIG,2-3,,LB,HDLSERPL_VERTICAL,Vertical,Local Processing,HDL Cholesterol in Serum or Plasma (Vertical),HDL_LBSPEC,LBSPEC,C70713,,Specimen Material,5,Y,text,100,,N,C78734,SPECTYPE,,,,SERUM OR PLASMA,C105706,LBSPEC,LBSPEC = SERUM OR PLASMA,
2025-12-31,C105587,HDLSERPL,CDASHIG,2-3,,LB,HDLSERPL_VERTICAL,Vertical,Local Processing,HDL Cholesterol in Serum or Plasma (Vertical),HDL_LBFAST,LBFAST,C93566,Was the subject fasting?,,6,N,text,1,,N,C66742,NY,N;Y,No;Yes,Single,,,LBFAST,LBFAST,
2025-12-31,C105587,HDLSERPL,CDASHIG,2-3,,LB,HDLSERPL_VERTICAL,Vertical,Local Processing,HDL Cholesterol in Serum or Plasma (Vertical),HDL_LBORRES,LBORRES,C70856,,HDL Cholesterol,7,Y,decimal,8,2.0,N,,,,,,,,LBORRES;LBTESTCD;LBTEST,LBORRES when LBTESTCD = HDL,
2025-12-31,C105587,HDLSERPL,CDASHIG,2-3,,LB,HDLSERPL_VERTICAL,Vertical,Local Processing,HDL Cholesterol in Serum or Plasma (Vertical),HDL_LBORRESU,LBORRESU,C48207,,Unit,8,Y,text,20,,N,C71620,UNIT,mg/dL;mg/L;mmol/L;umol/L,mg/dL;mg/L;mmol/L;umol/L,Single,,,LBORRESU;LBTESTCD;LBTEST,LBORRESU when LBTESTCD = HDL,
2025-12-31,C105587,HDLSERPL,CDASHIG,2-3,,LB,HDLSERPL_VERTICAL,Vertical,Local Processing,HDL Cholesterol in Serum or Plasma (Vertical),HDL_LBORNRLO,LBORNRLO,,,Normal Range Lower Limit,9,N,decimal,8,2.0,N,,,,,,,,LBORNRLO,LBORNRLO,
2025-12-31,C105587,HDLSERPL,CDASHIG,2-3,,LB,HDLSERPL_VERTICAL,Vertical,Local Processing,HDL Cholesterol in Serum or Plasma (Vertical),HDL_LBORNRHI,LBORNRHI,,,Normal Range Upper Limit,10,N,decimal,8,2.0,N,,,,,,,,LBORNRHI,LBORNRHI,
2025-12-31,C105587,HDLSERPL,CDASHIG,2-3,,LB,HDLSERPL_VERTICAL,Vertical,Local Processing,HDL Cholesterol in Serum or Plasma (Vertical),HDL_LBCLSIG,LBCLSIG,,Was this result clinically significant?,,11,N,text,1,,N,C66742,NY,N;Y,No;Yes,Single,,,LBCLSIG,LBCLSIG,
2025-12-31,C82525,,CDASHIG,2-3,,LB,HEMATOLOGY_PERF,,,Laboratory Test Performed - Hematology,LBCAT,LBCAT,,,Lab Panel Name,1,Y,text,100,,N,,,,,,HEMATOLOGY,,LBCAT,LBCAT = HEMATOLOGY,
2025-12-31,C82525,,CDASHIG,2-3,,LB,HEMATOLOGY_PERF,,,Laboratory Test Performed - Hematology,LBPERF,LBPERF,C82525,Was the sample collected?,,2,Y,text,1,,N,C66742,NY,N;Y,No;Yes,Single,,,LBSTAT,[NOT SUBMITTED]; LBSTAT = NOT DONE when LBTESTCD = LBALL,
2025-12-31,C82525,,CDASHIG,2-3,,LB,HEMATOLOGY_PERF,,,Laboratory Test Performed - Hematology,LBDAT,LBDAT,C82515,,Specimen Collection Date,3,N,date,10,,N,,,,,,,,LBDTC,LBDTC,
2025-12-31,C64848,HGBBLD,CDASHIG,2-3,,LB,HGBBLD_VERTICAL,Vertical,Local Processing,Hemoglobin Concentration in Blood (Vertical),HGB_LBCAT,LBCAT,,,Lab Panel Name,1,N,text,100,,Y,,,,,,HEMATOLOGY,,LBCAT,LBCAT = HEMATOLOGY,
2025-12-31,C64848,HGBBLD,CDASHIG,2-3,,LB,HGBBLD_VERTICAL,Vertical,Local Processing,Hemoglobin Concentration in Blood (Vertical),HGB_LBSCAT,LBSCAT,,,Lab Sub-Panel Name,2,N,text,100,,Y,,,,,,,,LBSCAT,LBSCAT,
2025-12-31,C64848,HGBBLD,CDASHIG,2-3,,LB,HGBBLD_VERTICAL,Vertical,Local Processing,Hemoglobin Concentration in Blood (Vertical),HGB_LBNAM,LBNAM,,What was the name of the laboratory used?,,3,N,text,200,,N,,,,,,,,LBNAM,LBNAM,
2025-12-31,C64848,HGBBLD,CDASHIG,2-3,,LB,HGBBLD_VERTICAL,Vertical,Local Processing,Hemoglobin Concentration in Blood (Vertical),HGB_LBDAT,LBDAT,C82515,,Specimen Collection Date,4,N,date,10,,N,,,,,,,,LBDTC,LBDTC,
2025-12-31,C64848,HGBBLD,CDASHIG,2-3,,LB,HGBBLD_VERTICAL,Vertical,Local Processing,Hemoglobin Concentration in Blood (Vertical),HGB_LBSPEC,LBSPEC,C70713,,Specimen Material,5,Y,text,100,,N,C78734,SPECTYPE,,,,BLOOD,C12434,LBSPEC,LBSPEC = BLOOD,
2025-12-31,C64848,HGBBLD,CDASHIG,2-3,,LB,HGBBLD_VERTICAL,Vertical,Local Processing,Hemoglobin Concentration in Blood (Vertical),HGB_LBFAST,LBFAST,C93566,Was the subject fasting?,,6,N,text,1,,N,C66742,NY,N;Y,No;Yes,Single,,,LBFAST,LBFAST,
2025-12-31,C64848,HGBBLD,CDASHIG,2-3,,LB,HGBBLD_VERTICAL,Vertical,Local Processing,Hemoglobin Concentration in Blood (Vertical),HGB_LBORRES,LBORRES,C70856,,Hemoglobin,7,Y,decimal,8,2.0,N,,,,,,,,LBORRES;LBTESTCD;LBTEST,LBORRES when LBTESTCD = HGB,
2025-12-31,C64848,HGBBLD,CDASHIG,2-3,,LB,HGBBLD_VERTICAL,Vertical,Local Processing,Hemoglobin Concentration in Blood (Vertical),HGB_LBORRESU,LBORRESU,C64571,,Unit,8,Y,text,20,,N,C71620,UNIT,g/dL;g/L;mg/dL,g/dL;g/L;mg/dL,Single,,,LBORRESU;LBTESTCD;LBTEST,LBORRESU when LBTESTCD = HGB,
2025-12-31,C64848,HGBBLD,CDASHIG,2-3,,LB,HGBBLD_VERTICAL,Vertical,Local Processing,Hemoglobin Concentration in Blood (Vertical),HGB_LBORNRLO,LBORNRLO,,,Normal Range Lower Limit,9,N,decimal,8,2.0,N,,,,,,,,LBORNRLO,LBORNRLO,
2025-12-31,C64848,HGBBLD,CDASHIG,2-3,,LB,HGBBLD_VERTICAL,Vertical,Local Processing,Hemoglobin Concentration in Blood (Vertical),HGB_LBORNRHI,LBORNRHI,,,Normal Range Upper Limit,10,N,decimal,8,2.0,N,,,,,,,,LBORNRHI,LBORNRHI,
2025-12-31,C64848,HGBBLD,CDASHIG,2-3,,LB,HGBBLD_VERTICAL,Vertical,Local Processing,Hemoglobin Concentration in Blood (Vertical),HGB_LBCLSIG,LBCLSIG,,Was this result clinically significant?,,11,N,text,1,,N,C66742,NY,N;Y,No;Yes,Single,,,LBCLSIG,LBCLSIG,
2025-12-31,C74834,INTLK6SERPL,CDASHIG,2-3,,LB,INTLK6SERPL_VERTICAL,Vertical,Local Processing,Interleukin 6 in Serum or Plasma (Vertical),INTLK6_LBCAT,LBCAT,,,Lab Panel Name,1,N,text,100,,Y,,,,,,CHEMISTRY,,LBCAT,LBCAT = CHEMISTRY,
2025-12-31,C74834,INTLK6SERPL,CDASHIG,2-3,,LB,INTLK6SERPL_VERTICAL,Vertical,Local Processing,Interleukin 6 in Serum or Plasma (Vertical),INTLK6_LBSCAT,LBSCAT,,,Lab Sub-Panel Name,2,N,text,100,,Y,,,,,,,,LBSCAT,LBSCAT,
2025-12-31,C74834,INTLK6SERPL,CDASHIG,2-3,,LB,INTLK6SERPL_VERTICAL,Vertical,Local Processing,Interleukin 6 in Serum or Plasma (Vertical),INTLK6_LBNAM,LBNAM,,What was the name of the laboratory used?,,3,N,text,200,,N,,,,,,,,LBNAM,LBNAM,
2025-12-31,C74834,INTLK6SERPL,CDASHIG,2-3,,LB,INTLK6SERPL_VERTICAL,Vertical,Local Processing,Interleukin 6 in Serum or Plasma (Vertical),INTLK6_LBDAT,LBDAT,C82515,,Specimen Collection Date,4,N,date,10,,N,,,,,,,,LBDTC,LBDTC,
2025-12-31,C74834,INTLK6SERPL,CDASHIG,2-3,,LB,INTLK6SERPL_VERTICAL,Vertical,Local Processing,Interleukin 6 in Serum or Plasma (Vertical),INTLK6_LBSPEC,LBSPEC,C70713,,Specimen Material,5,Y,text,100,,N,C78734,SPECTYPE,,,,SERUM OR PLASMA,C105706,LBSPEC,LBSPEC = SERUM OR PLASMA,
2025-12-31,C74834,INTLK6SERPL,CDASHIG,2-3,,LB,INTLK6SERPL_VERTICAL,Vertical,Local Processing,Interleukin 6 in Serum or Plasma (Vertical),INTLK6_LBORRES,LBORRES,C70856,,Interleukin 6,6,Y,decimal,8,2.0,N,,,,,,,,LBORRES;LBTESTCD;LBTEST,LBORRES when LBTESTCD = INTLK6,
2025-12-31,C74834,INTLK6SERPL,CDASHIG,2-3,,LB,INTLK6SERPL_VERTICAL,Vertical,Local Processing,Interleukin 6 in Serum or Plasma (Vertical),INTLK6_LBORRESU,LBORRESU,NEW_6,,Unit,7,Y,text,20,,N,C71620,UNIT,ng/L;pg/L;Arbitrary U/mL,ng/L;pg/L;Arbitrary U/mL,Single,,,LBORRESU;LBTESTCD;LBTEST,LBORRESU when LBTESTCD = INTLK6,
2025-12-31,C74834,INTLK6SERPL,CDASHIG,2-3,,LB,INTLK6SERPL_VERTICAL,Vertical,Local Processing,Interleukin 6 in Serum or Plasma (Vertical),INTLK6_LBORNRLO,LBORNRLO,,,Normal Range Lower Limit,8,N,decimal,8,2.0,N,,,,,,,,LBORNRLO,LBORNRLO,
2025-12-31,C74834,INTLK6SERPL,CDASHIG,2-3,,LB,INTLK6SERPL_VERTICAL,Vertical,Local Processing,Interleukin 6 in Serum or Plasma (Vertical),INTLK6_LBORNRHI,LBORNRHI,,,Normal Range Upper Limit,9,N,decimal,8,2.0,N,,,,,,,,LBORNRHI,LBORNRHI,
2025-12-31,C74834,INTLK6SERPL,CDASHIG,2-3,,LB,INTLK6SERPL_VERTICAL,Vertical,Local Processing,Interleukin 6 in Serum or Plasma (Vertical),INTLK6_LBCLSIG,LBCLSIG,,Was this result clinically significant?,,10,N,text,1,,N,C66742,NY,N;Y,No;Yes,Single,,,LBCLSIG,LBCLSIG,
2025-12-31,C64853,KBLD,CDASHIG,2-3,,LB,KBLD_VERTICAL,Vertical,Local Processing,Potassium Concentration in Blood (Vertical),K_LBCAT,LBCAT,,,Lab Panel Name,1,N,text,100,,Y,,,,,,CHEMISTRY,,LBCAT,LBCAT = CHEMISTRY,
2025-12-31,C64853,KBLD,CDASHIG,2-3,,LB,KBLD_VERTICAL,Vertical,Local Processing,Potassium Concentration in Blood (Vertical),K_LBSCAT,LBSCAT,,,Lab Sub-Panel Name,2,N,text,100,,Y,,,,,,,,LBSCAT,LBSCAT,
2025-12-31,C64853,KBLD,CDASHIG,2-3,,LB,KBLD_VERTICAL,Vertical,Local Processing,Potassium Concentration in Blood (Vertical),K_LBNAM,LBNAM,,What was the name of the laboratory used?,,3,N,text,200,,N,,,,,,,,LBNAM,LBNAM,
2025-12-31,C64853,KBLD,CDASHIG,2-3,,LB,KBLD_VERTICAL,Vertical,Local Processing,Potassium Concentration in Blood (Vertical),K_LBDAT,LBDAT,C82515,,Specimen Collection Date,4,N,date,10,,N,,,,,,,,LBDTC,LBDTC,
2025-12-31,C64853,KBLD,CDASHIG,2-3,,LB,KBLD_VERTICAL,Vertical,Local Processing,Potassium Concentration in Blood (Vertical),K_LBSPEC,LBSPEC,C70713,,Specimen Material,5,Y,text,100,,N,C78734,SPECTYPE,,,,BLOOD,C12434,LBSPEC,LBSPEC = BLOOD,
2025-12-31,C64853,KBLD,CDASHIG,2-3,,LB,KBLD_VERTICAL,Vertical,Local Processing,Potassium Concentration in Blood (Vertical),K_LBFAST,LBFAST,C93566,Was the subject fasting?,,6,N,text,1,,N,C66742,NY,N;Y,No;Yes,Single,,,LBFAST,LBFAST,
2025-12-31,C64853,KBLD,CDASHIG,2-3,,LB,KBLD_VERTICAL,Vertical,Local Processing,Potassium Concentration in Blood (Vertical),K_LBORRES,LBORRES,C70856,,Potassium,7,Y,decimal,8,2.0,N,,,,,,,,LBORRES;LBTESTCD;LBTEST,LBORRES when LBTESTCD = K,
2025-12-31,C64853,KBLD,CDASHIG,2-3,,LB,KBLD_VERTICAL,Vertical,Local Processing,Potassium Concentration in Blood (Vertical),K_LBORRESU,LBORRESU,C64567,,Unit,8,Y,text,20,,N,C71620,UNIT,mEq/L;mEq/dL;mmol/L,mEq/L;mEq/dL;mmol/L,Single,,,LBORRESU;LBTESTCD;LBTEST,LBORRESU when LBTESTCD = K,
2025-12-31,C64853,KBLD,CDASHIG,2-3,,LB,KBLD_VERTICAL,Vertical,Local Processing,Potassium Concentration in Blood (Vertical),K_LBORNRLO,LBORNRLO,,,Normal Range Lower Limit,9,N,decimal,8,2.0,N,,,,,,,,LBORNRLO,LBORNRLO,
2025-12-31,C64853,KBLD,CDASHIG,2-3,,LB,KBLD_VERTICAL,Vertical,Local Processing,Potassium Concentration in Blood (Vertical),K_LBORNRHI,LBORNRHI,,,Normal Range Upper Limit,10,N,decimal,8,2.0,N,,,,,,,,LBORNRHI,LBORNRHI,
2025-12-31,C64853,KBLD,CDASHIG,2-3,,LB,KBLD_VERTICAL,Vertical,Local Processing,Potassium Concentration in Blood (Vertical),K_LBCLSIG,LBCLSIG,,Was this result clinically significant?,,11,N,text,1,,N,C66742,NY,N;Y,No;Yes,Single,,,LBCLSIG,LBCLSIG,
2025-12-31,C64854,KETONESURIN,CDASHIG,2-3,,LB,KETONESURIN_VERTICAL,Vertical,Local Processing,Ketone Concentration in Urine (Vertical),KETONES_LBCAT,LBCAT,,,Lab Panel Name,1,N,text,100,,Y,,,,,,URINALYSIS,,LBCAT,LBCAT = URINALYSIS,
2025-12-31,C64854,KETONESURIN,CDASHIG,2-3,,LB,KETONESURIN_VERTICAL,Vertical,Local Processing,Ketone Concentration in Urine (Vertical),KETONES_LBSCAT,LBSCAT,,,Lab Sub-Panel Name,2,N,text,100,,Y,,,,,,,,LBSCAT,LBSCAT,
2025-12-31,C64854,KETONESURIN,CDASHIG,2-3,,LB,KETONESURIN_VERTICAL,Vertical,Local Processing,Ketone Concentration in Urine (Vertical),KETONES_LBNAM,LBNAM,,What was the name of the laboratory used?,,3,N,text,200,,N,,,,,,,,LBNAM,LBNAM,
2025-12-31,C64854,KETONESURIN,CDASHIG,2-3,,LB,KETONESURIN_VERTICAL,Vertical,Local Processing,Ketone Concentration in Urine (Vertical),KETONES_LBDAT,LBDAT,C82515,,Specimen Collection Date,4,N,date,10,,N,,,,,,,,LBDTC,LBDTC,
2025-12-31,C64854,KETONESURIN,CDASHIG,2-3,,LB,KETONESURIN_VERTICAL,Vertical,Local Processing,Ketone Concentration in Urine (Vertical),KETONES_LBSPEC,LBSPEC,C70713,,Specimen Material,5,Y,text,100,,N,C78734,SPECTYPE,,,,URINE,C13283,LBSPEC,LBSPEC = URINE,
2025-12-31,C64854,KETONESURIN,CDASHIG,2-3,,LB,KETONESURIN_VERTICAL,Vertical,Local Processing,Ketone Concentration in Urine (Vertical),KETONES_LBFAST,LBFAST,C93566,Was the subject fasting?,,6,N,text,1,,N,C66742,NY,N;Y,No;Yes,Single,,,LBFAST,LBFAST,
2025-12-31,C64854,KETONESURIN,CDASHIG,2-3,,LB,KETONESURIN_VERTICAL,Vertical,Local Processing,Ketone Concentration in Urine (Vertical),KETONES_LBORRES,LBORRES,C70856,,Ketones,7,Y,decimal,8,2.0,N,,,,,,,,LBORRES;LBTESTCD;LBTEST,LBORRES when LBTESTCD = KETONES,
2025-12-31,C64854,KETONESURIN,CDASHIG,2-3,,LB,KETONESURIN_VERTICAL,Vertical,Local Processing,Ketone Concentration in Urine (Vertical),KETONES_LBORRESU,LBORRESU,C48207,,Unit,8,Y,text,20,,N,C71620,UNIT,mg/dL;mmol/L,mg/dL;mmol/L,Single,,,LBORRESU;LBTESTCD;LBTEST,LBORRESU when LBTESTCD = KETONES,
2025-12-31,C64854,KETONESURIN,CDASHIG,2-3,,LB,KETONESURIN_VERTICAL,Vertical,Local Processing,Ketone Concentration in Urine (Vertical),KETONES_LBORNRLO,LBORNRLO,,,Normal Range Lower Limit,9,N,decimal,8,2.0,N,,,,,,,,LBORNRLO,LBORNRLO,
2025-12-31,C64854,KETONESURIN,CDASHIG,2-3,,LB,KETONESURIN_VERTICAL,Vertical,Local Processing,Ketone Concentration in Urine (Vertical),KETONES_LBORNRHI,LBORNRHI,,,Normal Range Upper Limit,10,N,decimal,8,2.0,N,,,,,,,,LBORNRHI,LBORNRHI,
2025-12-31,C64854,KETONESURIN,CDASHIG,2-3,,LB,KETONESURIN_VERTICAL,Vertical,Local Processing,Ketone Concentration in Urine (Vertical),KETONES_LBCLSIG,LBCLSIG,,Was this result clinically significant?,,11,N,text,1,,N,C66742,NY,N;Y,No;Yes,Single,,,LBCLSIG,LBCLSIG,
2025-12-31,C64853,KURIN,CDASHIG,2-3,,LB,KURIN_VERTICAL,Vertical,Local Processing,Potassium Concentration in Urine (Vertical),K_LBCAT,LBCAT,,,Lab Panel Name,1,N,text,100,,Y,,,,,,CHEMISTRY,,LBCAT,LBCAT = CHEMISTRY,
2025-12-31,C64853,KURIN,CDASHIG,2-3,,LB,KURIN_VERTICAL,Vertical,Local Processing,Potassium Concentration in Urine (Vertical),K_LBSCAT,LBSCAT,,,Lab Sub-Panel Name,2,N,text,100,,Y,,,,,,,,LBSCAT,LBSCAT,
2025-12-31,C64853,KURIN,CDASHIG,2-3,,LB,KURIN_VERTICAL,Vertical,Local Processing,Potassium Concentration in Urine (Vertical),K_LBNAM,LBNAM,,What was the name of the laboratory used?,,3,N,text,200,,N,,,,,,,,LBNAM,LBNAM,
2025-12-31,C64853,KURIN,CDASHIG,2-3,,LB,KURIN_VERTICAL,Vertical,Local Processing,Potassium Concentration in Urine (Vertical),K_LBDAT,LBDAT,C82515,,Specimen Collection Date,4,N,date,10,,N,,,,,,,,LBDTC,LBDTC,
2025-12-31,C64853,KURIN,CDASHIG,2-3,,LB,KURIN_VERTICAL,Vertical,Local Processing,Potassium Concentration in Urine (Vertical),K_LBSPEC,LBSPEC,C70713,,Specimen Material,5,Y,text,100,,N,C78734,SPECTYPE,,,,URINE,C13283,LBSPEC,LBSPEC = URINE,
2025-12-31,C64853,KURIN,CDASHIG,2-3,,LB,KURIN_VERTICAL,Vertical,Local Processing,Potassium Concentration in Urine (Vertical),K_LBFAST,LBFAST,C93566,Was the subject fasting?,,6,N,text,1,,N,C66742,NY,N;Y,No;Yes,Single,,,LBFAST,LBFAST,
2025-12-31,C64853,KURIN,CDASHIG,2-3,,LB,KURIN_VERTICAL,Vertical,Local Processing,Potassium Concentration in Urine (Vertical),K_LBORRES,LBORRES,C70856,,Potassium,7,Y,decimal,8,2.0,N,,,,,,,,LBORRES;LBTESTCD;LBTEST,LBORRES when LBTESTCD = K,
2025-12-31,C64853,KURIN,CDASHIG,2-3,,LB,KURIN_VERTICAL,Vertical,Local Processing,Potassium Concentration in Urine (Vertical),K_LBORRESU,LBORRESU,C64567,,Unit,8,Y,text,20,,N,C71620,UNIT,mEq/L;mEq/dL;mmol/L,mEq/L;mEq/dL;mmol/L,Single,,,LBORRESU;LBTESTCD;LBTEST,LBORRESU when LBTESTCD = K,
2025-12-31,C64853,KURIN,CDASHIG,2-3,,LB,KURIN_VERTICAL,Vertical,Local Processing,Potassium Concentration in Urine (Vertical),K_LBORNRLO,LBORNRLO,,,Normal Range Lower Limit,9,N,decimal,8,2.0,N,,,,,,,,LBORNRLO,LBORNRLO,
2025-12-31,C64853,KURIN,CDASHIG,2-3,,LB,KURIN_VERTICAL,Vertical,Local Processing,Potassium Concentration in Urine (Vertical),K_LBORNRHI,LBORNRHI,,,Normal Range Upper Limit,10,N,decimal,8,2.0,N,,,,,,,,LBORNRHI,LBORNRHI,
2025-12-31,C64853,KURIN,CDASHIG,2-3,,LB,KURIN_VERTICAL,Vertical,Local Processing,Potassium Concentration in Urine (Vertical),K_LBCLSIG,LBCLSIG,,Was this result clinically significant?,,11,N,text,1,,N,C66742,NY,N;Y,No;Yes,Single,,,LBCLSIG,LBCLSIG,
2025-12-31,C64855,LDHSERPL,CDASHIG,2-3,,LB,LDHSERPL_VERTICAL,Vertical,Local Processing,Lactate Dehydrogenase Concentration in Serum or Plasma (Vertical),LDH_LBCAT,LBCAT,,,Lab Panel Name,1,N,text,100,,Y,,,,,,CHEMISTRY,,LBCAT,LBCAT = CHEMISTRY,
2025-12-31,C64855,LDHSERPL,CDASHIG,2-3,,LB,LDHSERPL_VERTICAL,Vertical,Local Processing,Lactate Dehydrogenase Concentration in Serum or Plasma (Vertical),LDH_LBSCAT,LBSCAT,,,Lab Sub-Panel Name,2,N,text,100,,Y,,,,,,,,LBSCAT,LBSCAT,
2025-12-31,C64855,LDHSERPL,CDASHIG,2-3,,LB,LDHSERPL_VERTICAL,Vertical,Local Processing,Lactate Dehydrogenase Concentration in Serum or Plasma (Vertical),LDH_LBNAM,LBNAM,,What was the name of the laboratory used?,,3,N,text,200,,N,,,,,,,,LBNAM,LBNAM,
2025-12-31,C64855,LDHSERPL,CDASHIG,2-3,,LB,LDHSERPL_VERTICAL,Vertical,Local Processing,Lactate Dehydrogenase Concentration in Serum or Plasma (Vertical),LDH_LBDAT,LBDAT,C82515,,Specimen Collection Date,4,N,date,10,,N,,,,,,,,LBDTC,LBDTC,
2025-12-31,C64855,LDHSERPL,CDASHIG,2-3,,LB,LDHSERPL_VERTICAL,Vertical,Local Processing,Lactate Dehydrogenase Concentration in Serum or Plasma (Vertical),LDH_LBSPEC,LBSPEC,C70713,,Specimen Material,5,Y,text,100,,N,C78734,SPECTYPE,,,,SERUM OR PLASMA,C105706,LBSPEC,LBSPEC = SERUM OR PLASMA,
2025-12-31,C64855,LDHSERPL,CDASHIG,2-3,,LB,LDHSERPL_VERTICAL,Vertical,Local Processing,Lactate Dehydrogenase Concentration in Serum or Plasma (Vertical),LDH_LBFAST,LBFAST,C93566,Was the subject fasting?,,6,N,text,1,,N,C66742,NY,N;Y,No;Yes,Single,,,LBFAST,LBFAST,
2025-12-31,C64855,LDHSERPL,CDASHIG,2-3,,LB,LDHSERPL_VERTICAL,Vertical,Local Processing,Lactate Dehydrogenase Concentration in Serum or Plasma (Vertical),LDH_LBORRES,LBORRES,C70856,,Lactate Dehydrogenase,7,Y,decimal,8,2.0,N,,,,,,,,LBORRES;LBTESTCD;LBTEST,LBORRES when LBTESTCD = LDH,
2025-12-31,C64855,LDHSERPL,CDASHIG,2-3,,LB,LDHSERPL_VERTICAL,Vertical,Local Processing,Lactate Dehydrogenase Concentration in Serum or Plasma (Vertical),LDH_LBORRESU,LBORRESU,C67365,,Unit,8,Y,text,20,,N,C71620,UNIT,U/L;ukat/L;nkat/L,U/L;ukat/L;nkat/L,Single,,,LBORRESU;LBTESTCD;LBTEST,LBORRESU when LBTESTCD = LDH,
2025-12-31,C64855,LDHSERPL,CDASHIG,2-3,,LB,LDHSERPL_VERTICAL,Vertical,Local Processing,Lactate Dehydrogenase Concentration in Serum or Plasma (Vertical),LDH_LBORNRLO,LBORNRLO,,,Normal Range Lower Limit,9,N,decimal,8,2.0,N,,,,,,,,LBORNRLO,LBORNRLO,
2025-12-31,C64855,LDHSERPL,CDASHIG,2-3,,LB,LDHSERPL_VERTICAL,Vertical,Local Processing,Lactate Dehydrogenase Concentration in Serum or Plasma (Vertical),LDH_LBORNRHI,LBORNRHI,,,Normal Range Upper Limit,10,N,decimal,8,2.0,N,,,,,,,,LBORNRHI,LBORNRHI,
2025-12-31,C64855,LDHSERPL,CDASHIG,2-3,,LB,LDHSERPL_VERTICAL,Vertical,Local Processing,Lactate Dehydrogenase Concentration in Serum or Plasma (Vertical),LDH_LBCLSIG,LBCLSIG,,Was this result clinically significant?,,11,N,text,1,,N,C66742,NY,N;Y,No;Yes,Single,,,LBCLSIG,LBCLSIG,
2025-12-31,C105588,LDLSERPL,CDASHIG,2-3,,LB,LDLSERPL_VERTICAL,Vertical,Local Processing,LDL Cholesterol in Serum or Plasma (Vertical),LDL_LBCAT,LBCAT,,,Lab Panel Name,1,N,text,100,,Y,,,,,,CHEMISTRY,,LBCAT,LBCAT = CHEMISTRY,
2025-12-31,C105588,LDLSERPL,CDASHIG,2-3,,LB,LDLSERPL_VERTICAL,Vertical,Local Processing,LDL Cholesterol in Serum or Plasma (Vertical),LDL_LBSCAT,LBSCAT,,,Lab Sub-Panel Name,2,N,text,100,,Y,,,,,,,,LBSCAT,LBSCAT,
2025-12-31,C105588,LDLSERPL,CDASHIG,2-3,,LB,LDLSERPL_VERTICAL,Vertical,Local Processing,LDL Cholesterol in Serum or Plasma (Vertical),LDL_LBNAM,LBNAM,,What was the name of the laboratory used?,,3,N,text,200,,N,,,,,,,,LBNAM,LBNAM,
2025-12-31,C105588,LDLSERPL,CDASHIG,2-3,,LB,LDLSERPL_VERTICAL,Vertical,Local Processing,LDL Cholesterol in Serum or Plasma (Vertical),LDL_LBDAT,LBDAT,C82515,,Specimen Collection Date,4,N,date,10,,N,,,,,,,,LBDTC,LBDTC,
2025-12-31,C105588,LDLSERPL,CDASHIG,2-3,,LB,LDLSERPL_VERTICAL,Vertical,Local Processing,LDL Cholesterol in Serum or Plasma (Vertical),LDL_LBSPEC,LBSPEC,C70713,,Specimen Material,5,Y,text,100,,N,C78734,SPECTYPE,,,,SERUM OR PLASMA,C105706,LBSPEC,LBSPEC = SERUM OR PLASMA,
2025-12-31,C105588,LDLSERPL,CDASHIG,2-3,,LB,LDLSERPL_VERTICAL,Vertical,Local Processing,LDL Cholesterol in Serum or Plasma (Vertical),LDL_LBFAST,LBFAST,C93566,Was the subject fasting?,,6,N,text,1,,N,C66742,NY,N;Y,No;Yes,Single,,,LBFAST,LBFAST,
2025-12-31,C105588,LDLSERPL,CDASHIG,2-3,,LB,LDLSERPL_VERTICAL,Vertical,Local Processing,LDL Cholesterol in Serum or Plasma (Vertical),LDL_LBORRES,LBORRES,C70856,,LDL Cholesterol,7,Y,decimal,8,2.0,N,,,,,,,,LBORRES;LBTESTCD;LBTEST,LBORRES when LBTESTCD = LDL,
2025-12-31,C105588,LDLSERPL,CDASHIG,2-3,,LB,LDLSERPL_VERTICAL,Vertical,Local Processing,LDL Cholesterol in Serum or Plasma (Vertical),LDL_LBORRESU,LBORRESU,C48207,,Unit,8,Y,text,20,,N,C71620,UNIT,mg/dL;mg/L;mmol/L;umol/L,mg/dL;mg/L;mmol/L;umol/L,Single,,,LBORRESU;LBTESTCD;LBTEST,LBORRESU when LBTESTCD = LDL,
2025-12-31,C105588,LDLSERPL,CDASHIG,2-3,,LB,LDLSERPL_VERTICAL,Vertical,Local Processing,LDL Cholesterol in Serum or Plasma (Vertical),LDL_LBORNRLO,LBORNRLO,,,Normal Range Lower Limit,9,N,decimal,8,2.0,N,,,,,,,,LBORNRLO,LBORNRLO,
2025-12-31,C105588,LDLSERPL,CDASHIG,2-3,,LB,LDLSERPL_VERTICAL,Vertical,Local Processing,LDL Cholesterol in Serum or Plasma (Vertical),LDL_LBORNRHI,LBORNRHI,,,Normal Range Upper Limit,10,N,decimal,8,2.0,N,,,,,,,,LBORNRHI,LBORNRHI,
2025-12-31,C105588,LDLSERPL,CDASHIG,2-3,,LB,LDLSERPL_VERTICAL,Vertical,Local Processing,LDL Cholesterol in Serum or Plasma (Vertical),LDL_LBCLSIG,LBCLSIG,,Was this result clinically significant?,,11,N,text,1,,N,C66742,NY,N;Y,No;Yes,Single,,,LBCLSIG,LBCLSIG,
2025-12-31,C64821,MACROCYBLD,CDASHIG,2-3,,LB,MACROCYBLD_VERTICAL,Vertical,Local Processing,Macrocytes in Blood (Vertical),MACROCY_LBCAT,LBCAT,,,Lab Panel Name,1,N,text,100,,Y,,,,,,HEMATOLOGY,,LBCAT,LBCAT = HEMATOLOGY,
2025-12-31,C64821,MACROCYBLD,CDASHIG,2-3,,LB,MACROCYBLD_VERTICAL,Vertical,Local Processing,Macrocytes in Blood (Vertical),MACROCY_LBSCAT,LBSCAT,,,Lab Sub-Panel Name,2,N,text,100,,Y,,,,,,,,LBSCAT,LBSCAT,
2025-12-31,C64821,MACROCYBLD,CDASHIG,2-3,,LB,MACROCYBLD_VERTICAL,Vertical,Local Processing,Macrocytes in Blood (Vertical),MACROCY_LBNAM,LBNAM,,What was the name of the laboratory used?,,3,N,text,200,,N,,,,,,,,LBNAM,LBNAM,
2025-12-31,C64821,MACROCYBLD,CDASHIG,2-3,,LB,MACROCYBLD_VERTICAL,Vertical,Local Processing,Macrocytes in Blood (Vertical),MACROCY_LBDAT,LBDAT,C82515,,Specimen Collection Date,4,N,date,10,,N,,,,,,,,LBDTC,LBDTC,
2025-12-31,C64821,MACROCYBLD,CDASHIG,2-3,,LB,MACROCYBLD_VERTICAL,Vertical,Local Processing,Macrocytes in Blood (Vertical),MACROCY_LBSPEC,LBSPEC,C70713,,Specimen Material,5,Y,text,100,,N,C78734,SPECTYPE,,,,BLOOD,C12434,LBSPEC,LBSPEC = BLOOD,
2025-12-31,C64821,MACROCYBLD,CDASHIG,2-3,,LB,MACROCYBLD_VERTICAL,Vertical,Local Processing,Macrocytes in Blood (Vertical),MACROCY_LBFAST,LBFAST,C93566,Was the subject fasting?,,6,N,text,1,,N,C66742,NY,N;Y,No;Yes,Single,,,LBFAST,LBFAST,
2025-12-31,C64821,MACROCYBLD,CDASHIG,2-3,,LB,MACROCYBLD_VERTICAL,Vertical,Local Processing,Macrocytes in Blood (Vertical),MACROCY_LBORRES,LBORRES,C70856,,Macrocytes,7,Y,decimal,8,2.0,N,,,,,,,,LBORRES;LBTESTCD;LBTEST,LBORRES when LBTESTCD = MACROCY,
2025-12-31,C64821,MACROCYBLD,CDASHIG,2-3,,LB,MACROCYBLD_VERTICAL,Vertical,Local Processing,Macrocytes in Blood (Vertical),MACROCY_LBORRESU,LBORRESU,,,Unit,8,N,text,20,,N,,,,,,,,LBORRESU;LBTESTCD;LBTEST,LBORRESU when LBTESTCD = MACROCY,
2025-12-31,C64821,MACROCYBLD,CDASHIG,2-3,,LB,MACROCYBLD_VERTICAL,Vertical,Local Processing,Macrocytes in Blood (Vertical),MACROCY_LBORNRLO,LBORNRLO,,,Normal Range Lower Limit,9,N,decimal,8,2.0,N,,,,,,,,LBORNRLO,LBORNRLO,
2025-12-31,C64821,MACROCYBLD,CDASHIG,2-3,,LB,MACROCYBLD_VERTICAL,Vertical,Local Processing,Macrocytes in Blood (Vertical),MACROCY_LBORNRHI,LBORNRHI,,,Normal Range Upper Limit,10,N,decimal,8,2.0,N,,,,,,,,LBORNRHI,LBORNRHI,
2025-12-31,C64821,MACROCYBLD,CDASHIG,2-3,,LB,MACROCYBLD_VERTICAL,Vertical,Local Processing,Macrocytes in Blood (Vertical),MACROCY_LBCLSIG,LBCLSIG,,Was this result clinically significant?,,11,N,text,1,,N,C66742,NY,N;Y,No;Yes,Single,,,LBCLSIG,LBCLSIG,
2025-12-31,C64798,MCHC,CDASHIG,2-3,,LB,MCHC_VERTICAL,Vertical,Local Processing,Erythrocyte Mean Corpuscular Hemoglobin Concentration (Vertical),MCHC_LBCAT,LBCAT,,,Lab Panel Name,1,N,text,100,,Y,,,,,,HEMATOLOGY,,LBCAT,LBCAT = HEMATOLOGY,
2025-12-31,C64798,MCHC,CDASHIG,2-3,,LB,MCHC_VERTICAL,Vertical,Local Processing,Erythrocyte Mean Corpuscular Hemoglobin Concentration (Vertical),MCHC_LBSCAT,LBSCAT,,,Lab Sub-Panel Name,2,N,text,100,,Y,,,,,,,,LBSCAT,LBSCAT,
2025-12-31,C64798,MCHC,CDASHIG,2-3,,LB,MCHC_VERTICAL,Vertical,Local Processing,Erythrocyte Mean Corpuscular Hemoglobin Concentration (Vertical),MCHC_LBNAM,LBNAM,,What was the name of the laboratory used?,,3,N,text,200,,N,,,,,,,,LBNAM,LBNAM,
2025-12-31,C64798,MCHC,CDASHIG,2-3,,LB,MCHC_VERTICAL,Vertical,Local Processing,Erythrocyte Mean Corpuscular Hemoglobin Concentration (Vertical),MCHC_LBDAT,LBDAT,C82515,,Specimen Collection Date,4,N,date,10,,N,,,,,,,,LBDTC,LBDTC,
2025-12-31,C64798,MCHC,CDASHIG,2-3,,LB,MCHC_VERTICAL,Vertical,Local Processing,Erythrocyte Mean Corpuscular Hemoglobin Concentration (Vertical),MCHC_LBSPEC,LBSPEC,C70713,,Specimen Material,5,Y,text,100,,N,C78734,SPECTYPE,,,,ERYTHROCYTES,C12521,LBSPEC,LBSPEC = ERYTHROCYTES,
2025-12-31,C64798,MCHC,CDASHIG,2-3,,LB,MCHC_VERTICAL,Vertical,Local Processing,Erythrocyte Mean Corpuscular Hemoglobin Concentration (Vertical),MCHC_LBFAST,LBFAST,C93566,Was the subject fasting?,,6,N,text,1,,N,C66742,NY,N;Y,No;Yes,Single,,,LBFAST,LBFAST,
2025-12-31,C64798,MCHC,CDASHIG,2-3,,LB,MCHC_VERTICAL,Vertical,Local Processing,Erythrocyte Mean Corpuscular Hemoglobin Concentration (Vertical),MCHC_LBORRES,LBORRES,C70856,,Ery. Mean Corpuscular HGB Concentration,7,Y,decimal,8,2.0,N,,,,,,,,LBORRES;LBTESTCD;LBTEST,LBORRES when LBTESTCD = MCHC,
2025-12-31,C64798,MCHC,CDASHIG,2-3,,LB,MCHC_VERTICAL,Vertical,Local Processing,Erythrocyte Mean Corpuscular Hemoglobin Concentration (Vertical),MCHC_LBORRESU,LBORRESU,C48207,,Unit,8,Y,text,20,,N,C71620,UNIT,g/dL;g/L;mmol/L;umol/L,g/dL;g/L;mmol/L;umol/L,Single,,,LBORRESU;LBTESTCD;LBTEST,LBORRESU when LBTESTCD = MCHC,
2025-12-31,C64798,MCHC,CDASHIG,2-3,,LB,MCHC_VERTICAL,Vertical,Local Processing,Erythrocyte Mean Corpuscular Hemoglobin Concentration (Vertical),MCHC_LBORNRLO,LBORNRLO,,,Normal Range Lower Limit,9,N,decimal,8,2.0,N,,,,,,,,LBORNRLO,LBORNRLO,
2025-12-31,C64798,MCHC,CDASHIG,2-3,,LB,MCHC_VERTICAL,Vertical,Local Processing,Erythrocyte Mean Corpuscular Hemoglobin Concentration (Vertical),MCHC_LBORNRHI,LBORNRHI,,,Normal Range Upper Limit,10,N,decimal,8,2.0,N,,,,,,,,LBORNRHI,LBORNRHI,
2025-12-31,C64798,MCHC,CDASHIG,2-3,,LB,MCHC_VERTICAL,Vertical,Local Processing,Erythrocyte Mean Corpuscular Hemoglobin Concentration (Vertical),MCHC_LBCLSIG,LBCLSIG,,Was this result clinically significant?,,11,N,text,1,,N,C66742,NY,N;Y,No;Yes,Single,,,LBCLSIG,LBCLSIG,
2025-12-31,C64797,MCH,CDASHIG,2-3,,LB,MCH_VERTICAL,Vertical,Local Processing,Erythrocyte Mean Corpuscular Hemoglobin (Vertical),MCH_LBCAT,LBCAT,,,Lab Panel Name,1,N,text,100,,Y,,,,,,HEMATOLOGY,,LBCAT,LBCAT = HEMATOLOGY,
2025-12-31,C64797,MCH,CDASHIG,2-3,,LB,MCH_VERTICAL,Vertical,Local Processing,Erythrocyte Mean Corpuscular Hemoglobin (Vertical),MCH_LBSCAT,LBSCAT,,,Lab Sub-Panel Name,2,N,text,100,,Y,,,,,,,,LBSCAT,LBSCAT,
2025-12-31,C64797,MCH,CDASHIG,2-3,,LB,MCH_VERTICAL,Vertical,Local Processing,Erythrocyte Mean Corpuscular Hemoglobin (Vertical),MCH_LBNAM,LBNAM,,What was the name of the laboratory used?,,3,N,text,200,,N,,,,,,,,LBNAM,LBNAM,
2025-12-31,C64797,MCH,CDASHIG,2-3,,LB,MCH_VERTICAL,Vertical,Local Processing,Erythrocyte Mean Corpuscular Hemoglobin (Vertical),MCH_LBDAT,LBDAT,C82515,,Specimen Collection Date,4,N,date,10,,N,,,,,,,,LBDTC,LBDTC,
2025-12-31,C64797,MCH,CDASHIG,2-3,,LB,MCH_VERTICAL,Vertical,Local Processing,Erythrocyte Mean Corpuscular Hemoglobin (Vertical),MCH_LBSPEC,LBSPEC,C70713,,Specimen Material,5,Y,text,100,,N,C78734,SPECTYPE,,,,ERYTHROCYTES,C12521,LBSPEC,LBSPEC = ERYTHROCYTES,
2025-12-31,C64797,MCH,CDASHIG,2-3,,LB,MCH_VERTICAL,Vertical,Local Processing,Erythrocyte Mean Corpuscular Hemoglobin (Vertical),MCH_LBFAST,LBFAST,C93566,Was the subject fasting?,,6,N,text,1,,N,C66742,NY,N;Y,No;Yes,Single,,,LBFAST,LBFAST,
2025-12-31,C64797,MCH,CDASHIG,2-3,,LB,MCH_VERTICAL,Vertical,Local Processing,Erythrocyte Mean Corpuscular Hemoglobin (Vertical),MCH_LBORRES,LBORRES,C70856,,Ery. Mean Corpuscular Hemoglobin,7,Y,decimal,8,2.0,N,,,,,,,,LBORRES;LBTESTCD;LBTEST,LBORRES when LBTESTCD = MCH,
2025-12-31,C64797,MCH,CDASHIG,2-3,,LB,MCH_VERTICAL,Vertical,Local Processing,Erythrocyte Mean Corpuscular Hemoglobin (Vertical),MCH_LBORRESU,LBORRESU,C25709,,Unit,8,Y,text,20,,N,C71620,UNIT,pg;fmol,pg;fmol,Single,,,LBORRESU;LBTESTCD;LBTEST,LBORRESU when LBTESTCD = MCH,
2025-12-31,C64797,MCH,CDASHIG,2-3,,LB,MCH_VERTICAL,Vertical,Local Processing,Erythrocyte Mean Corpuscular Hemoglobin (Vertical),MCH_LBORNRLO,LBORNRLO,,,Normal Range Lower Limit,9,N,decimal,8,2.0,N,,,,,,,,LBORNRLO,LBORNRLO,
2025-12-31,C64797,MCH,CDASHIG,2-3,,LB,MCH_VERTICAL,Vertical,Local Processing,Erythrocyte Mean Corpuscular Hemoglobin (Vertical),MCH_LBORNRHI,LBORNRHI,,,Normal Range Upper Limit,10,N,decimal,8,2.0,N,,,,,,,,LBORNRHI,LBORNRHI,
2025-12-31,C64797,MCH,CDASHIG,2-3,,LB,MCH_VERTICAL,Vertical,Local Processing,Erythrocyte Mean Corpuscular Hemoglobin (Vertical),MCH_LBCLSIG,LBCLSIG,,Was this result clinically significant?,,11,N,text,1,,N,C66742,NY,N;Y,No;Yes,Single,,,LBCLSIG,LBCLSIG,
2025-12-31,C64799,MCV,CDASHIG,2-3,,LB,MCV_VERTICAL,Vertical,Local Processing,Erythrocyte Mean Corpuscular Volume (Vertical),MCV_LBCAT,LBCAT,,,Lab Panel Name,1,N,text,100,,Y,,,,,,HEMATOLOGY,,LBCAT,LBCAT = HEMATOLOGY,
2025-12-31,C64799,MCV,CDASHIG,2-3,,LB,MCV_VERTICAL,Vertical,Local Processing,Erythrocyte Mean Corpuscular Volume (Vertical),MCV_LBSCAT,LBSCAT,,,Lab Sub-Panel Name,2,N,text,100,,Y,,,,,,,,LBSCAT,LBSCAT,
2025-12-31,C64799,MCV,CDASHIG,2-3,,LB,MCV_VERTICAL,Vertical,Local Processing,Erythrocyte Mean Corpuscular Volume (Vertical),MCV_LBNAM,LBNAM,,What was the name of the laboratory used?,,3,N,text,200,,N,,,,,,,,LBNAM,LBNAM,
2025-12-31,C64799,MCV,CDASHIG,2-3,,LB,MCV_VERTICAL,Vertical,Local Processing,Erythrocyte Mean Corpuscular Volume (Vertical),MCV_LBDAT,LBDAT,C82515,,Specimen Collection Date,4,N,date,10,,N,,,,,,,,LBDTC,LBDTC,
2025-12-31,C64799,MCV,CDASHIG,2-3,,LB,MCV_VERTICAL,Vertical,Local Processing,Erythrocyte Mean Corpuscular Volume (Vertical),MCV_LBSPEC,LBSPEC,C70713,,Specimen Material,5,Y,text,100,,N,C78734,SPECTYPE,,,,ERYTHROCYTES,C12521,LBSPEC,LBSPEC = ERYTHROCYTES,
2025-12-31,C64799,MCV,CDASHIG,2-3,,LB,MCV_VERTICAL,Vertical,Local Processing,Erythrocyte Mean Corpuscular Volume (Vertical),MCV_LBFAST,LBFAST,C93566,Was the subject fasting?,,6,N,text,1,,N,C66742,NY,N;Y,No;Yes,Single,,,LBFAST,LBFAST,
2025-12-31,C64799,MCV,CDASHIG,2-3,,LB,MCV_VERTICAL,Vertical,Local Processing,Erythrocyte Mean Corpuscular Volume (Vertical),MCV_LBORRES,LBORRES,C70856,,Ery. Mean Corpuscular Volume,7,Y,decimal,8,2.0,N,,,,,,,,LBORRES;LBTESTCD;LBTEST,LBORRES when LBTESTCD = MCV,
2025-12-31,C64799,MCV,CDASHIG,2-3,,LB,MCV_VERTICAL,Vertical,Local Processing,Erythrocyte Mean Corpuscular Volume (Vertical),MCV_LBORRESU,LBORRESU,C44279,,Unit,8,Y,text,20,,N,C71620,UNIT,,,,fL,C64780,LBORRESU;LBTESTCD;LBTEST,LBORRESU = fL when LBTESTCD = MCV,
2025-12-31,C64799,MCV,CDASHIG,2-3,,LB,MCV_VERTICAL,Vertical,Local Processing,Erythrocyte Mean Corpuscular Volume (Vertical),MCV_LBORNRLO,LBORNRLO,,,Normal Range Lower Limit,9,N,decimal,8,2.0,N,,,,,,,,LBORNRLO,LBORNRLO,
2025-12-31,C64799,MCV,CDASHIG,2-3,,LB,MCV_VERTICAL,Vertical,Local Processing,Erythrocyte Mean Corpuscular Volume (Vertical),MCV_LBORNRHI,LBORNRHI,,,Normal Range Upper Limit,10,N,decimal,8,2.0,N,,,,,,,,LBORNRHI,LBORNRHI,
2025-12-31,C64799,MCV,CDASHIG,2-3,,LB,MCV_VERTICAL,Vertical,Local Processing,Erythrocyte Mean Corpuscular Volume (Vertical),MCV_LBCLSIG,LBCLSIG,,Was this result clinically significant?,,11,N,text,1,,N,C66742,NY,N;Y,No;Yes,Single,,,LBCLSIG,LBCLSIG,
2025-12-31,C64822,MICROCYBLD,CDASHIG,2-3,,LB,MICROCYBLD_VERTICAL,Vertical,Local Processing,Microcytes in Blood (Vertical),MICROCY_LBCAT,LBCAT,,,Lab Panel Name,1,N,text,100,,Y,,,,,,HEMATOLOGY,,LBCAT,LBCAT = HEMATOLOGY,
2025-12-31,C64822,MICROCYBLD,CDASHIG,2-3,,LB,MICROCYBLD_VERTICAL,Vertical,Local Processing,Microcytes in Blood (Vertical),MICROCY_LBSCAT,LBSCAT,,,Lab Sub-Panel Name,2,N,text,100,,Y,,,,,,,,LBSCAT,LBSCAT,
2025-12-31,C64822,MICROCYBLD,CDASHIG,2-3,,LB,MICROCYBLD_VERTICAL,Vertical,Local Processing,Microcytes in Blood (Vertical),MICROCY_LBNAM,LBNAM,,What was the name of the laboratory used?,,3,N,text,200,,N,,,,,,,,LBNAM,LBNAM,
2025-12-31,C64822,MICROCYBLD,CDASHIG,2-3,,LB,MICROCYBLD_VERTICAL,Vertical,Local Processing,Microcytes in Blood (Vertical),MICROCY_LBDAT,LBDAT,C82515,,Specimen Collection Date,4,N,date,10,,N,,,,,,,,LBDTC,LBDTC,
2025-12-31,C64822,MICROCYBLD,CDASHIG,2-3,,LB,MICROCYBLD_VERTICAL,Vertical,Local Processing,Microcytes in Blood (Vertical),MICROCY_LBSPEC,LBSPEC,C70713,,Specimen Material,5,Y,text,100,,N,C78734,SPECTYPE,,,,BLOOD,C12434,LBSPEC,LBSPEC = BLOOD,
2025-12-31,C64822,MICROCYBLD,CDASHIG,2-3,,LB,MICROCYBLD_VERTICAL,Vertical,Local Processing,Microcytes in Blood (Vertical),MICROCY_LBFAST,LBFAST,C93566,Was the subject fasting?,,6,N,text,1,,N,C66742,NY,N;Y,No;Yes,Single,,,LBFAST,LBFAST,
2025-12-31,C64822,MICROCYBLD,CDASHIG,2-3,,LB,MICROCYBLD_VERTICAL,Vertical,Local Processing,Microcytes in Blood (Vertical),MICROCY_LBORRES,LBORRES,C70856,,Microcytes,7,Y,decimal,8,2.0,N,,,,,,,,LBORRES;LBTESTCD;LBTEST,LBORRES when LBTESTCD = MICROCY,
2025-12-31,C64822,MICROCYBLD,CDASHIG,2-3,,LB,MICROCYBLD_VERTICAL,Vertical,Local Processing,Microcytes in Blood (Vertical),MICROCY_LBORRESU,LBORRESU,,,Unit,8,N,text,20,,N,,,,,,,,LBORRESU;LBTESTCD;LBTEST,LBORRESU when LBTESTCD = MICROCY,
2025-12-31,C64822,MICROCYBLD,CDASHIG,2-3,,LB,MICROCYBLD_VERTICAL,Vertical,Local Processing,Microcytes in Blood (Vertical),MICROCY_LBORNRLO,LBORNRLO,,,Normal Range Lower Limit,9,N,decimal,8,2.0,N,,,,,,,,LBORNRLO,LBORNRLO,
2025-12-31,C64822,MICROCYBLD,CDASHIG,2-3,,LB,MICROCYBLD_VERTICAL,Vertical,Local Processing,Microcytes in Blood (Vertical),MICROCY_LBORNRHI,LBORNRHI,,,Normal Range Upper Limit,10,N,decimal,8,2.0,N,,,,,,,,LBORNRHI,LBORNRHI,
2025-12-31,C64822,MICROCYBLD,CDASHIG,2-3,,LB,MICROCYBLD_VERTICAL,Vertical,Local Processing,Microcytes in Blood (Vertical),MICROCY_LBCLSIG,LBCLSIG,,Was this result clinically significant?,,11,N,text,1,,N,C66742,NY,N;Y,No;Yes,Single,,,LBCLSIG,LBCLSIG,
2025-12-31,C64823,MONOBLD,CDASHIG,2-3,,LB,MONOBLD_VERTICAL,Vertical,Local Processing,Monocyte Count in Blood (Vertical),MONO_LBCAT,LBCAT,,,Lab Panel Name,1,N,text,100,,Y,,,,,,HEMATOLOGY,,LBCAT,LBCAT = HEMATOLOGY,
2025-12-31,C64823,MONOBLD,CDASHIG,2-3,,LB,MONOBLD_VERTICAL,Vertical,Local Processing,Monocyte Count in Blood (Vertical),MONO_LBSCAT,LBSCAT,,,Lab Sub-Panel Name,2,N,text,100,,Y,,,,,,,,LBSCAT,LBSCAT,
2025-12-31,C64823,MONOBLD,CDASHIG,2-3,,LB,MONOBLD_VERTICAL,Vertical,Local Processing,Monocyte Count in Blood (Vertical),MONO_LBNAM,LBNAM,,What was the name of the laboratory used?,,3,N,text,200,,N,,,,,,,,LBNAM,LBNAM,
2025-12-31,C64823,MONOBLD,CDASHIG,2-3,,LB,MONOBLD_VERTICAL,Vertical,Local Processing,Monocyte Count in Blood (Vertical),MONO_LBDAT,LBDAT,C82515,,Specimen Collection Date,4,N,date,10,,N,,,,,,,,LBDTC,LBDTC,
2025-12-31,C64823,MONOBLD,CDASHIG,2-3,,LB,MONOBLD_VERTICAL,Vertical,Local Processing,Monocyte Count in Blood (Vertical),MONO_LBSPEC,LBSPEC,C70713,,Specimen Material,5,Y,text,100,,N,C78734,SPECTYPE,,,,BLOOD,C12434,LBSPEC,LBSPEC = BLOOD,
2025-12-31,C64823,MONOBLD,CDASHIG,2-3,,LB,MONOBLD_VERTICAL,Vertical,Local Processing,Monocyte Count in Blood (Vertical),MONO_LBFAST,LBFAST,C93566,Was the subject fasting?,,6,N,text,1,,N,C66742,NY,N;Y,No;Yes,Single,,,LBFAST,LBFAST,
2025-12-31,C64823,MONOBLD,CDASHIG,2-3,,LB,MONOBLD_VERTICAL,Vertical,Local Processing,Monocyte Count in Blood (Vertical),MONO_LBORRES,LBORRES,C70856,,Monocytes,7,Y,decimal,8,2.0,N,,,,,,,,LBORRES;LBTESTCD;LBTEST,LBORRES when LBTESTCD = MONO,
2025-12-31,C64823,MONOBLD,CDASHIG,2-3,,LB,MONOBLD_VERTICAL,Vertical,Local Processing,Monocyte Count in Blood (Vertical),MONO_LBORRESU,LBORRESU,C67391,,Unit,8,Y,text,20,,N,C71620,UNIT,,,,10^9/L,C67255,LBORRESU;LBTESTCD;LBTEST,LBORRESU = 10^9/L when LBTESTCD = MONO,
2025-12-31,C64823,MONOBLD,CDASHIG,2-3,,LB,MONOBLD_VERTICAL,Vertical,Local Processing,Monocyte Count in Blood (Vertical),MONO_LBORNRLO,LBORNRLO,,,Normal Range Lower Limit,9,N,decimal,8,2.0,N,,,,,,,,LBORNRLO,LBORNRLO,
2025-12-31,C64823,MONOBLD,CDASHIG,2-3,,LB,MONOBLD_VERTICAL,Vertical,Local Processing,Monocyte Count in Blood (Vertical),MONO_LBORNRHI,LBORNRHI,,,Normal Range Upper Limit,10,N,decimal,8,2.0,N,,,,,,,,LBORNRHI,LBORNRHI,
2025-12-31,C64823,MONOBLD,CDASHIG,2-3,,LB,MONOBLD_VERTICAL,Vertical,Local Processing,Monocyte Count in Blood (Vertical),MONO_LBCLSIG,LBCLSIG,,Was this result clinically significant?,,11,N,text,1,,N,C66742,NY,N;Y,No;Yes,Single,,,LBCLSIG,LBCLSIG,
2025-12-31,C64830,NEUTBBLD,CDASHIG,2-3,,LB,NEUTBBLD_VERTICAL,Vertical,Local Processing,Neutrophils Band Form in Blood (Vertical),NEUTB_LBCAT,LBCAT,,,Lab Panel Name,1,N,text,100,,Y,,,,,,HEMATOLOGY,,LBCAT,LBCAT = HEMATOLOGY,
2025-12-31,C64830,NEUTBBLD,CDASHIG,2-3,,LB,NEUTBBLD_VERTICAL,Vertical,Local Processing,Neutrophils Band Form in Blood (Vertical),NEUTB_LBSCAT,LBSCAT,,,Lab Sub-Panel Name,2,N,text,100,,Y,,,,,,,,LBSCAT,LBSCAT,
2025-12-31,C64830,NEUTBBLD,CDASHIG,2-3,,LB,NEUTBBLD_VERTICAL,Vertical,Local Processing,Neutrophils Band Form in Blood (Vertical),NEUTB_LBNAM,LBNAM,,What was the name of the laboratory used?,,3,N,text,200,,N,,,,,,,,LBNAM,LBNAM,
2025-12-31,C64830,NEUTBBLD,CDASHIG,2-3,,LB,NEUTBBLD_VERTICAL,Vertical,Local Processing,Neutrophils Band Form in Blood (Vertical),NEUTB_LBDAT,LBDAT,C82515,,Specimen Collection Date,4,N,date,10,,N,,,,,,,,LBDTC,LBDTC,
2025-12-31,C64830,NEUTBBLD,CDASHIG,2-3,,LB,NEUTBBLD_VERTICAL,Vertical,Local Processing,Neutrophils Band Form in Blood (Vertical),NEUTB_LBSPEC,LBSPEC,C70713,,Specimen Material,5,Y,text,100,,N,C78734,SPECTYPE,,,,BLOOD,C12434,LBSPEC,LBSPEC = BLOOD,
2025-12-31,C64830,NEUTBBLD,CDASHIG,2-3,,LB,NEUTBBLD_VERTICAL,Vertical,Local Processing,Neutrophils Band Form in Blood (Vertical),NEUTB_LBFAST,LBFAST,C93566,Was the subject fasting?,,6,N,text,1,,N,C66742,NY,N;Y,No;Yes,Single,,,LBFAST,LBFAST,
2025-12-31,C64830,NEUTBBLD,CDASHIG,2-3,,LB,NEUTBBLD_VERTICAL,Vertical,Local Processing,Neutrophils Band Form in Blood (Vertical),NEUTB_LBORRES,LBORRES,C70856,,Neutrophils Band Form,7,Y,decimal,8,2.0,N,,,,,,,,LBORRES;LBTESTCD;LBTEST,LBORRES when LBTESTCD = NEUTB,
2025-12-31,C64830,NEUTBBLD,CDASHIG,2-3,,LB,NEUTBBLD_VERTICAL,Vertical,Local Processing,Neutrophils Band Form in Blood (Vertical),NEUTB_LBORRESU,LBORRESU,C67391,,Unit,8,Y,text,20,,N,C71620,UNIT,,,,10^6/L,C67452,LBORRESU;LBTESTCD;LBTEST,LBORRESU = 10^6/L when LBTESTCD = NEUTB,
2025-12-31,C64830,NEUTBBLD,CDASHIG,2-3,,LB,NEUTBBLD_VERTICAL,Vertical,Local Processing,Neutrophils Band Form in Blood (Vertical),NEUTB_LBORNRLO,LBORNRLO,,,Normal Range Lower Limit,9,N,decimal,8,2.0,N,,,,,,,,LBORNRLO,LBORNRLO,
