<?xml version='1.0' encoding='utf-8'?>
<ODM FileOID="ODM.CDASH.POC" Granularity="Metadata" AsOfDateTime="2025-08-20T18:53:31.747578+00:00" CreationDateTime="2025-08-20T18:53:31.747578+00:00" ODMVersion="2.0" FileType="Snapshot" Originator="Lex Jansen" SourceSystem="odmlib" SourceSystemVersion="0.1" xmlns="http://www.cdisc.org/ns/odm/v2.0" xmlns:xs="http://www.w3.org/2001/XMLSchema-instance" xmlns:xml="http://www.w3.org/XML/1998/namespace" xmlns:xlink="http://www.w3.org/1999/xlink"><Study OID="ODM.CDASH.STUDY" StudyName="CDISC360i CDASH POC Study" ProtocolName="CDISC360i CDASH POC Study protocol"><Description><TranslatedText Type="text/plain" xml:lang="en">CDISC360i CDASH POC Study</TranslatedText></Description><MetaDataVersion OID="ODM.CDASH.STUDY.MDV" Name="CDISC360i CDASH POC Study Metadata Version"><Description><TranslatedText Type="text/plain" xml:lang="en">CDISC360i CDASH ODM 2.0 metadata version</TranslatedText></Description><ItemGroupDef OID="IG_FORM.ADASCOGSC1" Name="ADAS-COG Summary Score" Repeating="No" Type="Form"><Description><TranslatedText Type="text/plain" xml:lang="en">ADAS-COG Summary Score</TranslatedText></Description><ItemGroupRef ItemGroupOID="IG.ADASCOG_01_1" OrderNumber="1" Mandatory="Yes" /><ItemGroupRef ItemGroupOID="IG.ADASCOGSC_01_2" OrderNumber="2" Mandatory="Yes" /><ItemGroupRef ItemGroupOID="IG.ADASCOGSC_02_3" OrderNumber="3" Mandatory="Yes" /><ItemGroupRef ItemGroupOID="IG.ADASCOGSC_03_4" OrderNumber="4" Mandatory="Yes" /><ItemGroupRef ItemGroupOID="IG.ADASCOGSC_04_5" OrderNumber="5" Mandatory="Yes" /><ItemGroupRef ItemGroupOID="IG.ADASCOGSC_05_6" OrderNumber="6" Mandatory="Yes" /><ItemGroupRef ItemGroupOID="IG.ADASCOGSC_06_7" OrderNumber="7" Mandatory="Yes" /><ItemGroupRef ItemGroupOID="IG.ADASCOGSC_07_8" OrderNumber="8" Mandatory="Yes" /><ItemGroupRef ItemGroupOID="IG.ADASCOGSC_08_9" OrderNumber="9" Mandatory="Yes" /><ItemGroupRef ItemGroupOID="IG.ADASCOGSC_09_10" OrderNumber="10" Mandatory="Yes" /><ItemGroupRef ItemGroupOID="IG.ADASCOGSC_10_11" OrderNumber="11" Mandatory="Yes" /><ItemGroupRef ItemGroupOID="IG.ADASCOGSC_11_12" OrderNumber="12" Mandatory="Yes" /><ItemGroupRef ItemGroupOID="IG.ADASCOGSC_12_13" OrderNumber="13" Mandatory="Yes" /><ItemGroupRef ItemGroupOID="IG.ADASCOGSC_13_14" OrderNumber="14" Mandatory="Yes" /><ItemGroupRef ItemGroupOID="IG.ADASCOGSC_14_15" OrderNumber="15" Mandatory="Yes" /><ItemGroupRef ItemGroupOID="IG.ADASCOGSC_15_16" OrderNumber="16" Mandatory="Yes" /><Alias Context="formAnnotation" Name="DOMAIN = FT; FTCAT = ADAS-COG" /></ItemGroupDef><ItemGroupDef OID="IG.ADASCOG_01_1" Name="ADAS-COG - Lead Question" Repeating="No" Type="Section"><Description><TranslatedText Type="text/plain" xml:lang="en">ADAS-COG - Lead Question</TranslatedText></Description><ItemGroupRef ItemGroupOID="IG.ADASCOG_01_1_ADASCOG_1" OrderNumber="1" Mandatory="Yes" /></ItemGroupDef><ItemGroupDef OID="IG.ADASCOGSC_01_2" Name="ADAS-COG - Word Recall" Repeating="No" Type="Section"><Description><TranslatedText Type="text/plain" xml:lang="en">ADAS-COG - Word Recall</TranslatedText></Description><ItemGroupRef ItemGroupOID="IG.ADASCOGSC_01_2_ADCRLT01_1" OrderNumber="1" Mandatory="Yes" /><ItemGroupRef ItemGroupOID="IG.ADASCOGSC_01_2_ADCRLT02_2" OrderNumber="2" Mandatory="Yes" /><ItemGroupRef ItemGroupOID="IG.ADASCOGSC_01_2_ADCRLT03_3" OrderNumber="3" Mandatory="Yes" /><ItemGroupRef ItemGroupOID="IG.ADASCOGSC_01_2_ADCRL_4" OrderNumber="4" Mandatory="Yes" /></ItemGroupDef><ItemGroupDef OID="IG.ADASCOGSC_02_3" Name="ADAS-COG - Naming Objects and Fingers Summary Score" Repeating="No" Type="Section"><Description><TranslatedText Type="text/plain" xml:lang="en">ADAS-COG - Naming Objects and Fingers Summary Score</TranslatedText></Description><ItemGroupRef ItemGroupOID="IG.ADASCOGSC_02_3_ADCOF_1" OrderNumber="1" Mandatory="Yes" /></ItemGroupDef><ItemGroupDef OID="IG.ADASCOGSC_03_4" Name="ADAS-COG - Commands Summary Score" Repeating="No" Type="Section"><Description><TranslatedText Type="text/plain" xml:lang="en">ADAS-COG - Commands Summary Score</TranslatedText></Description><ItemGroupRef ItemGroupOID="IG.ADASCOGSC_03_4_ADCCMD_1" OrderNumber="1" Mandatory="Yes" /></ItemGroupDef><ItemGroupDef OID="IG.ADASCOGSC_04_5" Name="ADAS-COG - Delayed Word Recall Summary Score" Repeating="No" Type="Section"><Description><TranslatedText Type="text/plain" xml:lang="en">ADAS-COG - Delayed Word Recall Summary Score</TranslatedText></Description><ItemGroupRef ItemGroupOID="IG.ADASCOGSC_04_5_ADCDRL_1" OrderNumber="1" Mandatory="Yes" /></ItemGroupDef><ItemGroupDef OID="IG.ADASCOGSC_05_6" Name="ADAS-COG - Constructional Praxis Summary Score" Repeating="No" Type="Section"><Description><TranslatedText Type="text/plain" xml:lang="en">ADAS-COG - Constructional Praxis Summary Score</TranslatedText></Description><ItemGroupRef ItemGroupOID="IG.ADASCOGSC_05_6_ADCCP_1" OrderNumber="1" Mandatory="Yes" /></ItemGroupDef><ItemGroupDef OID="IG.ADASCOGSC_06_7" Name="ADAS-COG - Ideational Praxis Summary Score" Repeating="No" Type="Section"><Description><TranslatedText Type="text/plain" xml:lang="en">ADAS-COG - Ideational Praxis Summary Score</TranslatedText></Description><ItemGroupRef ItemGroupOID="IG.ADASCOGSC_06_7_ADCIP_1" OrderNumber="1" Mandatory="Yes" /></ItemGroupDef><ItemGroupDef OID="IG.ADASCOGSC_07_8" Name="ADAS-COG - Orientation Summary Score" Repeating="No" Type="Section"><Description><TranslatedText Type="text/plain" xml:lang="en">ADAS-COG - Orientation Summary Score</TranslatedText></Description><ItemGroupRef ItemGroupOID="IG.ADASCOGSC_07_8_ADCOR_1" OrderNumber="1" Mandatory="Yes" /></ItemGroupDef><ItemGroupDef OID="IG.ADASCOGSC_08_9" Name="ADAS-COG - Word Recognition" Repeating="No" Type="Section"><Description><TranslatedText Type="text/plain" xml:lang="en">ADAS-COG - Word Recognition</TranslatedText></Description><ItemGroupRef ItemGroupOID="IG.ADASCOGSC_08_9_ADCRGT01_1" OrderNumber="1" Mandatory="Yes" /><ItemGroupRef ItemGroupOID="IG.ADASCOGSC_08_9_ADCRGT02_2" OrderNumber="2" Mandatory="Yes" /><ItemGroupRef ItemGroupOID="IG.ADASCOGSC_08_9_ADCRGT03_3" OrderNumber="3" Mandatory="Yes" /><ItemGroupRef ItemGroupOID="IG.ADASCOGSC_08_9_ADCRG_4" OrderNumber="4" Mandatory="Yes" /></ItemGroupDef><ItemGroupDef OID="IG.ADASCOGSC_09_10" Name="ADAS-COG - Remembering Test Instructions" Repeating="No" Type="Section"><Description><TranslatedText Type="text/plain" xml:lang="en">ADAS-COG - Remembering Test Instructions</TranslatedText></Description><ItemGroupRef ItemGroupOID="IG.ADASCOGSC_09_10_ADCRI_1" OrderNumber="1" Mandatory="Yes" /></ItemGroupDef><ItemGroupDef OID="IG.ADASCOGSC_10_11" Name="ADAS-COG - Spoken Language Ability" Repeating="No" Type="Section"><Description><TranslatedText Type="text/plain" xml:lang="en">ADAS-COG - Spoken Language Ability</TranslatedText></Description><ItemGroupRef ItemGroupOID="IG.ADASCOGSC_10_11_ADCSL_1" OrderNumber="1" Mandatory="Yes" /></ItemGroupDef><ItemGroupDef OID="IG.ADASCOGSC_11_12" Name="ADAS-COG - Word Difficulty in Spontaneous Speech" Repeating="No" Type="Section"><Description><TranslatedText Type="text/plain" xml:lang="en">ADAS-COG - Word Difficulty in Spontaneous Speech</TranslatedText></Description><ItemGroupRef ItemGroupOID="IG.ADASCOGSC_11_12_ADCDIF_1" OrderNumber="1" Mandatory="Yes" /></ItemGroupDef><ItemGroupDef OID="IG.ADASCOGSC_12_13" Name="ADAS-COG - Comprehension" Repeating="No" Type="Section"><Description><TranslatedText Type="text/plain" xml:lang="en">ADAS-COG - Comprehension</TranslatedText></Description><ItemGroupRef ItemGroupOID="IG.ADASCOGSC_12_13_ADCCMP_1" OrderNumber="1" Mandatory="Yes" /></ItemGroupDef><ItemGroupDef OID="IG.ADASCOGSC_13_14" Name="ADAS-COG - Concentration/Distractibility" Repeating="No" Type="Section"><Description><TranslatedText Type="text/plain" xml:lang="en">ADAS-COG - Concentration/Distractibility</TranslatedText></Description><ItemGroupRef ItemGroupOID="IG.ADASCOGSC_13_14_ADCCON_1" OrderNumber="1" Mandatory="Yes" /></ItemGroupDef><ItemGroupDef OID="IG.ADASCOGSC_14_15" Name="ADAS-COG - Number Cancellation" Repeating="No" Type="Section"><Description><TranslatedText Type="text/plain" xml:lang="en">ADAS-COG - Number Cancellation</TranslatedText></Description><ItemGroupRef ItemGroupOID="IG.ADASCOGSC_14_15_ADCNC01_1" OrderNumber="1" Mandatory="Yes" /><ItemGroupRef ItemGroupOID="IG.ADASCOGSC_14_15_ADCNC02_2" OrderNumber="2" Mandatory="Yes" /><ItemGroupRef ItemGroupOID="IG.ADASCOGSC_14_15_ADCNC03_3" OrderNumber="3" Mandatory="Yes" /><ItemGroupRef ItemGroupOID="IG.ADASCOGSC_14_15_ADCNC_4" OrderNumber="4" Mandatory="Yes" /></ItemGroupDef><ItemGroupDef OID="IG.ADASCOGSC_15_16" Name="ADAS-COG - Executive Function Maze" Repeating="No" Type="Section"><Description><TranslatedText Type="text/plain" xml:lang="en">ADAS-COG - Executive Function Maze</TranslatedText></Description><ItemGroupRef ItemGroupOID="IG.ADASCOGSC_15_16_ADCMZ01_1" OrderNumber="1" Mandatory="Yes" /><ItemGroupRef ItemGroupOID="IG.ADASCOGSC_15_16_ADCMZ02_2" OrderNumber="2" Mandatory="Yes" /><ItemGroupRef ItemGroupOID="IG.ADASCOGSC_15_16_ADCMZ_3" OrderNumber="3" Mandatory="Yes" /></ItemGroupDef><ItemGroupDef OID="IG.ADASCOG_01_1_ADASCOG_1" Name="Alzheimer's Disease Assessment Scale-Cognitive CDISC Version Functional Test" Repeating="No" Type="Concept"><Description><TranslatedText Type="text/plain" xml:lang="en">Alzheimer's Disease Assessment Scale-Cognitive CDISC Version Functional Test</TranslatedText></Description><ItemRef ItemOID="IT.ADASCOG_01_1_ADASCOG_1.ADASCOG_FTPERF" OrderNumber="2" Mandatory="No" /><ItemRef ItemOID="IT.ADASCOG_01_1_ADASCOG_1.ADASCOG_FTDAT" OrderNumber="3" Mandatory="Yes" /><ItemRef ItemOID="IT.ADASCOG_01_1_ADASCOG_1.ADASCOG_FTREASND" OrderNumber="4" Mandatory="No" /><Coding System="/mdr/bc/biomedicalconcepts/C100762" Code="C100762" SystemName="CDISC Biomedical Concept" /></ItemGroupDef><ItemGroupDef OID="IG.ADASCOGSC_01_2_ADCRLT01_1" Name="CDISC ADAS-Cog - Word Recall Trial 1 Subscore" Repeating="No" Type="Concept"><Description><TranslatedText Type="text/plain" xml:lang="en">CDISC ADAS-Cog - Word Recall Trial 1 Subscore</TranslatedText></Description><ItemRef ItemOID="IT.ADASCOGSC_01_2_ADCRLT01_1.ADCRLT01_FTORRES" OrderNumber="2" Mandatory="Yes" /><ItemRef ItemOID="IT.ADASCOGSC_01_2_ADCRLT01_1.ADCRLT01_FTREASND" OrderNumber="3" Mandatory="No" /><Coding System="/mdr/bc/biomedicalconcepts/C100178" Code="C100178" SystemName="CDISC Biomedical Concept" /><Coding System="/mdr/specializations/sdtm/datasetspecializations/ADCRLT01" Code="ADCRLT01" SystemName="CDISC SDTM Dataset Specialization" /></ItemGroupDef><ItemGroupDef OID="IG.ADASCOGSC_01_2_ADCRLT02_2" Name="CDISC ADAS-Cog - Word Recall Trial 2 Subscore" Repeating="No" Type="Concept"><Description><TranslatedText Type="text/plain" xml:lang="en">CDISC ADAS-Cog - Word Recall Trial 2 Subscore</TranslatedText></Description><ItemRef ItemOID="IT.ADASCOGSC_01_2_ADCRLT02_2.ADCRLT02_FTORRES" OrderNumber="2" Mandatory="Yes" /><ItemRef ItemOID="IT.ADASCOGSC_01_2_ADCRLT02_2.ADCRLT02_FTREASND" OrderNumber="3" Mandatory="No" /><Coding System="/mdr/bc/biomedicalconcepts/C100179" Code="C100179" SystemName="CDISC Biomedical Concept" /><Coding System="/mdr/specializations/sdtm/datasetspecializations/ADCRLT02" Code="ADCRLT02" SystemName="CDISC SDTM Dataset Specialization" /></ItemGroupDef><ItemGroupDef OID="IG.ADASCOGSC_01_2_ADCRLT03_3" Name="CDISC ADAS-Cog - Word Recall Trial 3 Subscore" Repeating="No" Type="Concept"><Description><TranslatedText Type="text/plain" xml:lang="en">CDISC ADAS-Cog - Word Recall Trial 3 Subscore</TranslatedText></Description><ItemRef ItemOID="IT.ADASCOGSC_01_2_ADCRLT03_3.ADCRLT03_FTORRES" OrderNumber="2" Mandatory="Yes" /><ItemRef ItemOID="IT.ADASCOGSC_01_2_ADCRLT03_3.ADCRLT03_FTREASND" OrderNumber="3" Mandatory="No" /><Coding System="/mdr/bc/biomedicalconcepts/C100180" Code="C100180" SystemName="CDISC Biomedical Concept" /><Coding System="/mdr/specializations/sdtm/datasetspecializations/ADCRLT03" Code="ADCRLT03" SystemName="CDISC SDTM Dataset Specialization" /></ItemGroupDef><ItemGroupDef OID="IG.ADASCOGSC_01_2_ADCRL_4" Name="CDISC ADAS-Cog - Word Recall Average Score" Repeating="No" Type="Concept"><Description><TranslatedText Type="text/plain" xml:lang="en">CDISC ADAS-Cog - Word Recall Average Score</TranslatedText></Description><ItemRef ItemOID="IT.ADASCOGSC_01_2_ADCRL_4.ADCRL_FTORRES" OrderNumber="2" Mandatory="Yes" /><ItemRef ItemOID="IT.ADASCOGSC_01_2_ADCRL_4.ADCRL_FTREASND" OrderNumber="3" Mandatory="No" /><Coding System="/mdr/bc/biomedicalconcepts/C100177" Code="C100177" SystemName="CDISC Biomedical Concept" /><Coding System="/mdr/specializations/sdtm/datasetspecializations/ADCRL" Code="ADCRL" SystemName="CDISC SDTM Dataset Specialization" /></ItemGroupDef><ItemGroupDef OID="IG.ADASCOGSC_02_3_ADCOF_1" Name="CDISC ADAS-Cog - Naming Objects and Fingers Summary Score" Repeating="No" Type="Concept"><Description><TranslatedText Type="text/plain" xml:lang="en">CDISC ADAS-Cog - Naming Objects and Fingers Summary Score</TranslatedText></Description><ItemRef ItemOID="IT.ADASCOGSC_02_3_ADCOF_1.ADCOF_FTORRES" OrderNumber="2" Mandatory="Yes" /><ItemRef ItemOID="IT.ADASCOGSC_02_3_ADCOF_1.ADCOF_FTREASND" OrderNumber="3" Mandatory="No" /><Coding System="/mdr/bc/biomedicalconcepts/C100191" Code="C100191" SystemName="CDISC Biomedical Concept" /><Coding System="/mdr/specializations/sdtm/datasetspecializations/ADCOF" Code="ADCOF" SystemName="CDISC SDTM Dataset Specialization" /></ItemGroupDef><ItemGroupDef OID="IG.ADASCOGSC_03_4_ADCCMD_1" Name="CDISC ADAS-Cog - Commands Summary Score" Repeating="No" Type="Concept"><Description><TranslatedText Type="text/plain" xml:lang="en">CDISC ADAS-Cog - Commands Summary Score</TranslatedText></Description><ItemRef ItemOID="IT.ADASCOGSC_03_4_ADCCMD_1.ADCCMD_FTORRES" OrderNumber="2" Mandatory="Yes" /><ItemRef ItemOID="IT.ADASCOGSC_03_4_ADCCMD_1.ADCCMD_FTREASND" OrderNumber="3" Mandatory="No" /><Coding System="/mdr/bc/biomedicalconcepts/C100209" Code="C100209" SystemName="CDISC Biomedical Concept" /><Coding System="/mdr/specializations/sdtm/datasetspecializations/ADCCMD" Code="ADCCMD" SystemName="CDISC SDTM Dataset Specialization" /></ItemGroupDef><ItemGroupDef OID="IG.ADASCOGSC_04_5_ADCDRL_1" Name="CDISC ADAS-Cog - Delayed Word Recall Summary Score" Repeating="No" Type="Concept"><Description><TranslatedText Type="text/plain" xml:lang="en">CDISC ADAS-Cog - Delayed Word Recall Summary Score</TranslatedText></Description><ItemRef ItemOID="IT.ADASCOGSC_04_5_ADCDRL_1.ADCDRL_FTORRES" OrderNumber="2" Mandatory="Yes" /><ItemRef ItemOID="IT.ADASCOGSC_04_5_ADCDRL_1.ADCDRL_FTREASND" OrderNumber="3" Mandatory="No" /><Coding System="/mdr/bc/biomedicalconcepts/C100215" Code="C100215" SystemName="CDISC Biomedical Concept" /><Coding System="/mdr/specializations/sdtm/datasetspecializations/ADCDRL" Code="ADCDRL" SystemName="CDISC SDTM Dataset Specialization" /></ItemGroupDef><ItemGroupDef OID="IG.ADASCOGSC_05_6_ADCCP_1" Name="CDISC ADAS-Cog - Constructional Praxis Summary Score" Repeating="No" Type="Concept"><Description><TranslatedText Type="text/plain" xml:lang="en">CDISC ADAS-Cog - Constructional Praxis Summary Score</TranslatedText></Description><ItemRef ItemOID="IT.ADASCOGSC_05_6_ADCCP_1.ADCCP_FTORRES" OrderNumber="2" Mandatory="Yes" /><ItemRef ItemOID="IT.ADASCOGSC_05_6_ADCCP_1.ADCCP_FTREASND" OrderNumber="3" Mandatory="No" /><Coding System="/mdr/bc/biomedicalconcepts/C100226" Code="C100226" SystemName="CDISC Biomedical Concept" /><Coding System="/mdr/specializations/sdtm/datasetspecializations/ADCCP" Code="ADCCP" SystemName="CDISC SDTM Dataset Specialization" /></ItemGroupDef><ItemGroupDef OID="IG.ADASCOGSC_06_7_ADCIP_1" Name="CDISC ADAS-Cog - Ideational Praxis Summary Score" Repeating="No" Type="Concept"><Description><TranslatedText Type="text/plain" xml:lang="en">CDISC ADAS-Cog - Ideational Praxis Summary Score</TranslatedText></Description><ItemRef ItemOID="IT.ADASCOGSC_06_7_ADCIP_1.ADCIP_FTORRES" OrderNumber="2" Mandatory="Yes" /><ItemRef ItemOID="IT.ADASCOGSC_06_7_ADCIP_1.ADCIP_FTREASND" OrderNumber="3" Mandatory="No" /><Coding System="/mdr/bc/biomedicalconcepts/C100232" Code="C100232" SystemName="CDISC Biomedical Concept" /><Coding System="/mdr/specializations/sdtm/datasetspecializations/ADCIP" Code="ADCIP" SystemName="CDISC SDTM Dataset Specialization" /></ItemGroupDef><ItemGroupDef OID="IG.ADASCOGSC_07_8_ADCOR_1" Name="CDISC ADAS-Cog - Orientation Summary Score" Repeating="No" Type="Concept"><Description><TranslatedText Type="text/plain" xml:lang="en">CDISC ADAS-Cog - Orientation Summary Score</TranslatedText></Description><ItemRef ItemOID="IT.ADASCOGSC_07_8_ADCOR_1.ADCOR_FTORRES" OrderNumber="2" Mandatory="Yes" /><ItemRef ItemOID="IT.ADASCOGSC_07_8_ADCOR_1.ADCOR_FTREASND" OrderNumber="3" Mandatory="No" /><Coding System="/mdr/bc/biomedicalconcepts/C100238" Code="C100238" SystemName="CDISC Biomedical Concept" /><Coding System="/mdr/specializations/sdtm/datasetspecializations/ADCOR" Code="ADCOR" SystemName="CDISC SDTM Dataset Specialization" /></ItemGroupDef><ItemGroupDef OID="IG.ADASCOGSC_08_9_ADCRGT01_1" Name="CDISC ADAS-Cog - Word Recognition Trial 1 Subscore" Repeating="No" Type="Concept"><Description><TranslatedText Type="text/plain" xml:lang="en">CDISC ADAS-Cog - Word Recognition Trial 1 Subscore</TranslatedText></Description><ItemRef ItemOID="IT.ADASCOGSC_08_9_ADCRGT01_1.ADCRGT01_FTORRES" OrderNumber="2" Mandatory="Yes" /><ItemRef ItemOID="IT.ADASCOGSC_08_9_ADCRGT01_1.ADCRGT01_FTREASND" OrderNumber="3" Mandatory="No" /><Coding System="/mdr/bc/biomedicalconcepts/C100248" Code="C100248" SystemName="CDISC Biomedical Concept" /><Coding System="/mdr/specializations/sdtm/datasetspecializations/ADCRGT01" Code="ADCRGT01" SystemName="CDISC SDTM Dataset Specialization" /></ItemGroupDef><ItemGroupDef OID="IG.ADASCOGSC_08_9_ADCRGT02_2" Name="CDISC ADAS-Cog - Word Recognition Trial 2 Subscore" Repeating="No" Type="Concept"><Description><TranslatedText Type="text/plain" xml:lang="en">CDISC ADAS-Cog - Word Recognition Trial 2 Subscore</TranslatedText></Description><ItemRef ItemOID="IT.ADASCOGSC_08_9_ADCRGT02_2.ADCRGT02_FTORRES" OrderNumber="2" Mandatory="Yes" /><ItemRef ItemOID="IT.ADASCOGSC_08_9_ADCRGT02_2.ADCRGT02_FTREASND" OrderNumber="3" Mandatory="No" /><Coding System="/mdr/bc/biomedicalconcepts/C100249" Code="C100249" SystemName="CDISC Biomedical Concept" /><Coding System="/mdr/specializations/sdtm/datasetspecializations/ADCRGT02" Code="ADCRGT02" SystemName="CDISC SDTM Dataset Specialization" /></ItemGroupDef><ItemGroupDef OID="IG.ADASCOGSC_08_9_ADCRGT03_3" Name="CDISC ADAS-Cog - Word Recognition Trial 3 Subscore" Repeating="No" Type="Concept"><Description><TranslatedText Type="text/plain" xml:lang="en">CDISC ADAS-Cog - Word Recognition Trial 3 Subscore</TranslatedText></Description><ItemRef ItemOID="IT.ADASCOGSC_08_9_ADCRGT03_3.ADCRGT03_FTORRES" OrderNumber="2" Mandatory="Yes" /><ItemRef ItemOID="IT.ADASCOGSC_08_9_ADCRGT03_3.ADCRGT03_FTREASND" OrderNumber="3" Mandatory="No" /><Coding System="/mdr/bc/biomedicalconcepts/C100250" Code="C100250" SystemName="CDISC Biomedical Concept" /><Coding System="/mdr/specializations/sdtm/datasetspecializations/ADCRGT03" Code="ADCRGT03" SystemName="CDISC SDTM Dataset Specialization" /></ItemGroupDef><ItemGroupDef OID="IG.ADASCOGSC_08_9_ADCRG_4" Name="CDISC ADAS-Cog - Word Recognition Summary Score" Repeating="No" Type="Concept"><Description><TranslatedText Type="text/plain" xml:lang="en">CDISC ADAS-Cog - Word Recognition Summary Score</TranslatedText></Description><ItemRef ItemOID="IT.ADASCOGSC_08_9_ADCRG_4.ADCRG_FTORRES" OrderNumber="2" Mandatory="Yes" /><ItemRef ItemOID="IT.ADASCOGSC_08_9_ADCRG_4.ADCRG_FTREASND" OrderNumber="3" Mandatory="No" /><Coding System="/mdr/bc/biomedicalconcepts/C100247" Code="C100247" SystemName="CDISC Biomedical Concept" /><Coding System="/mdr/specializations/sdtm/datasetspecializations/ADCRG" Code="ADCRG" SystemName="CDISC SDTM Dataset Specialization" /></ItemGroupDef><ItemGroupDef OID="IG.ADASCOGSC_09_10_ADCRI_1" Name="CDISC ADAS-Cog - Remembering Test Instructions" Repeating="No" Type="Concept"><Description><TranslatedText Type="text/plain" xml:lang="en">CDISC ADAS-Cog - Remembering Test Instructions</TranslatedText></Description><ItemRef ItemOID="IT.ADASCOGSC_09_10_ADCRI_1.ADCRI_FTORRES" OrderNumber="2" Mandatory="Yes" /><ItemRef ItemOID="IT.ADASCOGSC_09_10_ADCRI_1.ADCRI_FTREASND" OrderNumber="3" Mandatory="No" /><Coding System="/mdr/bc/biomedicalconcepts/C100275" Code="C100275" SystemName="CDISC Biomedical Concept" /><Coding System="/mdr/specializations/sdtm/datasetspecializations/ADCRI" Code="ADCRI" SystemName="CDISC SDTM Dataset Specialization" /></ItemGroupDef><ItemGroupDef OID="IG.ADASCOGSC_10_11_ADCSL_1" Name="CDISC ADAS-Cog - Spoken Language Ability" Repeating="No" Type="Concept"><Description><TranslatedText Type="text/plain" xml:lang="en">CDISC ADAS-Cog - Spoken Language Ability</TranslatedText></Description><ItemRef ItemOID="IT.ADASCOGSC_10_11_ADCSL_1.ADCSL_FTORRES" OrderNumber="2" Mandatory="Yes" /><Coding System="/mdr/bc/biomedicalconcepts/C100276" Code="C100276" SystemName="CDISC Biomedical Concept" /><Coding System="/mdr/specializations/sdtm/datasetspecializations/ADCSL" Code="ADCSL" SystemName="CDISC SDTM Dataset Specialization" /></ItemGroupDef><ItemGroupDef OID="IG.ADASCOGSC_11_12_ADCDIF_1" Name="CDISC ADAS-Cog - Word Difficulty in Spontaneous Speech" Repeating="No" Type="Concept"><Description><TranslatedText Type="text/plain" xml:lang="en">CDISC ADAS-Cog - Word Difficulty in Spontaneous Speech</TranslatedText></Description><ItemRef ItemOID="IT.ADASCOGSC_11_12_ADCDIF_1.ADCDIF_FTORRES" OrderNumber="2" Mandatory="Yes" /><ItemRef ItemOID="IT.ADASCOGSC_11_12_ADCDIF_1.ADCDIF_FTREASND" OrderNumber="3" Mandatory="No" /><Coding System="/mdr/bc/biomedicalconcepts/C100277" Code="C100277" SystemName="CDISC Biomedical Concept" /><Coding System="/mdr/specializations/sdtm/datasetspecializations/ADCDIF" Code="ADCDIF" SystemName="CDISC SDTM Dataset Specialization" /></ItemGroupDef><ItemGroupDef OID="IG.ADASCOGSC_12_13_ADCCMP_1" Name="CDISC ADAS-Cog - Comprehension" Repeating="No" Type="Concept"><Description><TranslatedText Type="text/plain" xml:lang="en">CDISC ADAS-Cog - Comprehension</TranslatedText></Description><ItemRef ItemOID="IT.ADASCOGSC_12_13_ADCCMP_1.ADCCMP_FTORRES" OrderNumber="2" Mandatory="Yes" /><Coding System="/mdr/bc/biomedicalconcepts/C100278" Code="C100278" SystemName="CDISC Biomedical Concept" /><Coding System="/mdr/specializations/sdtm/datasetspecializations/ADCCMP" Code="ADCCMP" SystemName="CDISC SDTM Dataset Specialization" /></ItemGroupDef><ItemGroupDef OID="IG.ADASCOGSC_13_14_ADCCON_1" Name="CDISC ADAS-Cog - Concentration/Distractibility" Repeating="No" Type="Concept"><Description><TranslatedText Type="text/plain" xml:lang="en">CDISC ADAS-Cog - Concentration/Distractibility</TranslatedText></Description><ItemRef ItemOID="IT.ADASCOGSC_13_14_ADCCON_1.ADCCON_FTORRES" OrderNumber="2" Mandatory="Yes" /><ItemRef ItemOID="IT.ADASCOGSC_13_14_ADCCON_1.ADCCON_FTREASND" OrderNumber="3" Mandatory="No" /><Coding System="/mdr/bc/biomedicalconcepts/C100279" Code="C100279" SystemName="CDISC Biomedical Concept" /><Coding System="/mdr/specializations/sdtm/datasetspecializations/ADCCON" Code="ADCCON" SystemName="CDISC SDTM Dataset Specialization" /></ItemGroupDef><ItemGroupDef OID="IG.ADASCOGSC_14_15_ADCNC01_1" Name="CDISC ADAS-Cog - Number Cancellation: Correct" Repeating="No" Type="Concept"><Description><TranslatedText Type="text/plain" xml:lang="en">CDISC ADAS-Cog - Number Cancellation: Correct</TranslatedText></Description><ItemRef ItemOID="IT.ADASCOGSC_14_15_ADCNC01_1.ADCNC01_FTORRES" OrderNumber="2" Mandatory="Yes" /><ItemRef ItemOID="IT.ADASCOGSC_14_15_ADCNC01_1.ADCNC01_FTREASND" OrderNumber="3" Mandatory="No" /><Coding System="/mdr/bc/biomedicalconcepts/C100281" Code="C100281" SystemName="CDISC Biomedical Concept" /><Coding System="/mdr/specializations/sdtm/datasetspecializations/ADCNC01" Code="ADCNC01" SystemName="CDISC SDTM Dataset Specialization" /></ItemGroupDef><ItemGroupDef OID="IG.ADASCOGSC_14_15_ADCNC02_2" Name="CDISC ADAS-Cog - Number Cancellation: Errors" Repeating="No" Type="Concept"><Description><TranslatedText Type="text/plain" xml:lang="en">CDISC ADAS-Cog - Number Cancellation: Errors</TranslatedText></Description><ItemRef ItemOID="IT.ADASCOGSC_14_15_ADCNC02_2.ADCNC02_FTORRES" OrderNumber="2" Mandatory="Yes" /><ItemRef ItemOID="IT.ADASCOGSC_14_15_ADCNC02_2.ADCNC02_FTREASND" OrderNumber="3" Mandatory="No" /><Coding System="/mdr/bc/biomedicalconcepts/C100282" Code="C100282" SystemName="CDISC Biomedical Concept" /><Coding System="/mdr/specializations/sdtm/datasetspecializations/ADCNC02" Code="ADCNC02" SystemName="CDISC SDTM Dataset Specialization" /></ItemGroupDef><ItemGroupDef OID="IG.ADASCOGSC_14_15_ADCNC03_3" Name="CDISC ADAS-Cog - Number Cancellation: Remind" Repeating="No" Type="Concept"><Description><TranslatedText Type="text/plain" xml:lang="en">CDISC ADAS-Cog - Number Cancellation: Remind</TranslatedText></Description><ItemRef ItemOID="IT.ADASCOGSC_14_15_ADCNC03_3.ADCNC03_FTORRES" OrderNumber="2" Mandatory="Yes" /><ItemRef ItemOID="IT.ADASCOGSC_14_15_ADCNC03_3.ADCNC03_FTREASND" OrderNumber="3" Mandatory="No" /><Coding System="/mdr/bc/biomedicalconcepts/C100283" Code="C100283" SystemName="CDISC Biomedical Concept" /><Coding System="/mdr/specializations/sdtm/datasetspecializations/ADCNC03" Code="ADCNC03" SystemName="CDISC SDTM Dataset Specialization" /></ItemGroupDef><ItemGroupDef OID="IG.ADASCOGSC_14_15_ADCNC_4" Name="CDISC ADAS-Cog - Number Cancellation Summary Score" Repeating="No" Type="Concept"><Description><TranslatedText Type="text/plain" xml:lang="en">CDISC ADAS-Cog - Number Cancellation Summary Score</TranslatedText></Description><ItemRef ItemOID="IT.ADASCOGSC_14_15_ADCNC_4.ADCNC_FTORRES" OrderNumber="2" Mandatory="Yes" /><ItemRef ItemOID="IT.ADASCOGSC_14_15_ADCNC_4.ADCNC_FTREASND" OrderNumber="3" Mandatory="No" /><Coding System="/mdr/bc/biomedicalconcepts/C100280" Code="C100280" SystemName="CDISC Biomedical Concept" /><Coding System="/mdr/specializations/sdtm/datasetspecializations/ADCNC" Code="ADCNC" SystemName="CDISC SDTM Dataset Specialization" /></ItemGroupDef><ItemGroupDef OID="IG.ADASCOGSC_15_16_ADCMZ01_1" Name="CDISC ADAS-Cog - Executive Function Maze: Errors" Repeating="No" Type="Concept"><Description><TranslatedText Type="text/plain" xml:lang="en">CDISC ADAS-Cog - Executive Function Maze: Errors</TranslatedText></Description><ItemRef ItemOID="IT.ADASCOGSC_15_16_ADCMZ01_1.ADCMZ01_FTORRES" OrderNumber="2" Mandatory="Yes" /><ItemRef ItemOID="IT.ADASCOGSC_15_16_ADCMZ01_1.ADCMZ01_FTREASND" OrderNumber="3" Mandatory="No" /><Coding System="/mdr/bc/biomedicalconcepts/C100285" Code="C100285" SystemName="CDISC Biomedical Concept" /><Coding System="/mdr/specializations/sdtm/datasetspecializations/ADCMZ01" Code="ADCMZ01" SystemName="CDISC SDTM Dataset Specialization" /></ItemGroupDef><ItemGroupDef OID="IG.ADASCOGSC_15_16_ADCMZ02_2" Name="CDISC ADAS-Cog - Executive Function Maze: Time" Repeating="No" Type="Concept"><Description><TranslatedText Type="text/plain" xml:lang="en">CDISC ADAS-Cog - Executive Function Maze: Time</TranslatedText></Description><ItemRef ItemOID="IT.ADASCOGSC_15_16_ADCMZ02_2.ADCMZ02_FTORRES" OrderNumber="2" Mandatory="Yes" /><ItemRef ItemOID="IT.ADASCOGSC_15_16_ADCMZ02_2.ADCMZ02_FTORRESU" OrderNumber="3" Mandatory="Yes" PreSpecifiedValue="s" /><ItemRef ItemOID="IT.ADASCOGSC_15_16_ADCMZ02_2.ADCMZ02_FTREASND" OrderNumber="4" Mandatory="No" /><Coding System="/mdr/bc/biomedicalconcepts/C100286" Code="C100286" SystemName="CDISC Biomedical Concept" /><Coding System="/mdr/specializations/sdtm/datasetspecializations/ADCMZ02" Code="ADCMZ02" SystemName="CDISC SDTM Dataset Specialization" /></ItemGroupDef><ItemGroupDef OID="IG.ADASCOGSC_15_16_ADCMZ_3" Name="CDISC ADAS-Cog - Executive Function Maze Summary Score" Repeating="No" Type="Concept"><Description><TranslatedText Type="text/plain" xml:lang="en">CDISC ADAS-Cog - Executive Function Maze Summary Score</TranslatedText></Description><ItemRef ItemOID="IT.ADASCOGSC_15_16_ADCMZ_3.ADCMZ_FTORRES" OrderNumber="2" Mandatory="Yes" /><ItemRef ItemOID="IT.ADASCOGSC_15_16_ADCMZ_3.ADCMZ_FTREASND" OrderNumber="3" Mandatory="No" /><Coding System="/mdr/bc/biomedicalconcepts/C100284" Code="C100284" SystemName="CDISC Biomedical Concept" /><Coding System="/mdr/specializations/sdtm/datasetspecializations/ADCMZ" Code="ADCMZ" SystemName="CDISC SDTM Dataset Specialization" /></ItemGroupDef><ItemDef OID="IT.ADASCOG_01_1_ADASCOG_1.ADASCOG_FTPERF" Name="ADASCOG_FTPERF" DataType="text" Length="1"><Question><TranslatedText Type="text/plain" xml:lang="en">Was the ADAS-COG Functional Test performed?</TranslatedText></Question><CodeListRef CodeListOID="CL.ADASCOG_01_ADASCOG_1.ADASCOG_FTPERF.C66742" /><Alias Context="SDTM" Name="[NOT SUBMITTED]; FTSTAT = NOT DONE when FTTESTCD = FTALL" /></ItemDef><ItemDef OID="IT.ADASCOG_01_1_ADASCOG_1.ADASCOG_FTDAT" Name="ADASCOG_FTDAT" DataType="date" Length="10"><Prompt><TranslatedText Type="text/plain" xml:lang="en">Date of Assessment</TranslatedText></Prompt><Alias Context="SDTM" Name="FTDTC" /></ItemDef><ItemDef OID="IT.ADASCOG_01_1_ADASCOG_1.ADASCOG_FTREASND" Name="ADASCOG_FTREASND" DataType="text" Length="200"><Question><TranslatedText Type="text/plain" xml:lang="en">If any item(s) are incomplete or not done, please specify reason:</TranslatedText></Question><CodeListRef CodeListOID="CL.ADASCOG_01_ADASCOG_1.ADASCOG_FTREASND" /><Alias Context="SDTM" Name="FTREASND" /></ItemDef><ItemDef OID="IT.ADASCOGSC_01_2_ADCRLT01_1.ADCRLT01_FTORRES" Name="ADCRLT01_FTORRES" DataType="integer" Length="3"><Prompt><TranslatedText Type="text/plain" xml:lang="en">WORD RECALL / TRIAL 1</TranslatedText></Prompt><Alias Context="SDTM" Name="FTORRES when FTTESTCD = ADCRLT01" /></ItemDef><ItemDef OID="IT.ADASCOGSC_01_2_ADCRLT01_1.ADCRLT01_FTREASND" Name="ADCRLT01_FTREASND" DataType="text" Length="200"><Question><TranslatedText Type="text/plain" xml:lang="en">If any item(s) are incomplete or not done, please specify reason:</TranslatedText></Question><CodeListRef CodeListOID="CL.ADASCOGSC_01_ADCRLT01_1.ADCRLT01_FTREASND" /><Alias Context="SDTM" Name="FTREASND" /></ItemDef><ItemDef OID="IT.ADASCOGSC_01_2_ADCRLT02_2.ADCRLT02_FTORRES" Name="ADCRLT02_FTORRES" DataType="integer" Length="3"><Prompt><TranslatedText Type="text/plain" xml:lang="en">WORD RECALL / TRIAL 2</TranslatedText></Prompt><Alias Context="SDTM" Name="FTORRES when FTTESTCD = ADCRLT02" /></ItemDef><ItemDef OID="IT.ADASCOGSC_01_2_ADCRLT02_2.ADCRLT02_FTREASND" Name="ADCRLT02_FTREASND" DataType="text" Length="200"><Question><TranslatedText Type="text/plain" xml:lang="en">If any item(s) are incomplete or not done, please specify reason:</TranslatedText></Question><CodeListRef CodeListOID="CL.ADASCOGSC_01_ADCRLT02_2.ADCRLT02_FTREASND" /><Alias Context="SDTM" Name="FTREASND" /></ItemDef><ItemDef OID="IT.ADASCOGSC_01_2_ADCRLT03_3.ADCRLT03_FTORRES" Name="ADCRLT03_FTORRES" DataType="integer" Length="3"><Prompt><TranslatedText Type="text/plain" xml:lang="en">WORD RECALL / TRIAL 3</TranslatedText></Prompt><Alias Context="SDTM" Name="FTORRES when FTTESTCD = ADCRLT03" /></ItemDef><ItemDef OID="IT.ADASCOGSC_01_2_ADCRLT03_3.ADCRLT03_FTREASND" Name="ADCRLT03_FTREASND" DataType="text" Length="200"><Question><TranslatedText Type="text/plain" xml:lang="en">If any item(s) are incomplete or not done, please specify reason:</TranslatedText></Question><CodeListRef CodeListOID="CL.ADASCOGSC_01_ADCRLT03_3.ADCRLT03_FTREASND" /><Alias Context="SDTM" Name="FTREASND" /></ItemDef><ItemDef OID="IT.ADASCOGSC_01_2_ADCRL_4.ADCRL_FTORRES" Name="ADCRL_FTORRES" DataType="decimal" Length="5"><Prompt><TranslatedText Type="text/plain" xml:lang="en">WORD RECALL SUMMARY</TranslatedText></Prompt><CodeListRef CodeListOID="CL.ADASCOGSC_01_ADCRL_4.ADCRL_FTORRES" /><Alias Context="SDTM" Name="FTORRES when FTTESTCD = ADCRL" /></ItemDef><ItemDef OID="IT.ADASCOGSC_01_2_ADCRL_4.ADCRL_FTREASND" Name="ADCRL_FTREASND" DataType="text" Length="200"><Question><TranslatedText Type="text/plain" xml:lang="en">If any item(s) are incomplete or not done, please specify reason:</TranslatedText></Question><CodeListRef CodeListOID="CL.ADASCOGSC_01_ADCRL_4.ADCRL_FTREASND" /><Alias Context="SDTM" Name="FTREASND" /></ItemDef><ItemDef OID="IT.ADASCOGSC_02_3_ADCOF_1.ADCOF_FTORRES" Name="ADCOF_FTORRES" DataType="text" Length="5"><Prompt><TranslatedText Type="text/plain" xml:lang="en">NAMING OBJECTS AND FINGERS</TranslatedText></Prompt><CodeListRef CodeListOID="CL.ADASCOGSC_02_ADCOF_1.ADCOF_FTORRES" /><Alias Context="SDTM" Name="FTORRES when FTTESTCD = ADCOF" /></ItemDef><ItemDef OID="IT.ADASCOGSC_02_3_ADCOF_1.ADCOF_FTREASND" Name="ADCOF_FTREASND" DataType="text" Length="200"><Question><TranslatedText Type="text/plain" xml:lang="en">If any item(s) are incomplete or not done, please specify reason:</TranslatedText></Question><CodeListRef CodeListOID="CL.ADASCOGSC_02_ADCOF_1.ADCOF_FTREASND" /><Alias Context="SDTM" Name="FTREASND" /></ItemDef><ItemDef OID="IT.ADASCOGSC_03_4_ADCCMD_1.ADCCMD_FTORRES" Name="ADCCMD_FTORRES" DataType="text" Length="5"><Prompt><TranslatedText Type="text/plain" xml:lang="en">COMMANDS</TranslatedText></Prompt><CodeListRef CodeListOID="CL.ADASCOGSC_03_ADCCMD_1.ADCCMD_FTORRES" /><Alias Context="SDTM" Name="FTORRES when FTTESTCD = ADCCMD" /></ItemDef><ItemDef OID="IT.ADASCOGSC_03_4_ADCCMD_1.ADCCMD_FTREASND" Name="ADCCMD_FTREASND" DataType="text" Length="200"><Question><TranslatedText Type="text/plain" xml:lang="en">If any item(s) are incomplete or not done, please specify reason:</TranslatedText></Question><CodeListRef CodeListOID="CL.ADASCOGSC_03_ADCCMD_1.ADCCMD_FTREASND" /><Alias Context="SDTM" Name="FTREASND" /></ItemDef><ItemDef OID="IT.ADASCOGSC_04_5_ADCDRL_1.ADCDRL_FTORRES" Name="ADCDRL_FTORRES" DataType="integer" Length="2"><Prompt><TranslatedText Type="text/plain" xml:lang="en">DELAYED WORD RECALL</TranslatedText></Prompt><CodeListRef CodeListOID="CL.ADASCOGSC_04_ADCDRL_1.ADCDRL_FTORRES" /><Alias Context="SDTM" Name="FTORRES when FTTESTCD = ADCDRL" /></ItemDef><ItemDef OID="IT.ADASCOGSC_04_5_ADCDRL_1.ADCDRL_FTREASND" Name="ADCDRL_FTREASND" DataType="text" Length="200"><Question><TranslatedText Type="text/plain" xml:lang="en">If any item(s) are incomplete or not done, please specify reason:</TranslatedText></Question><CodeListRef CodeListOID="CL.ADASCOGSC_04_ADCDRL_1.ADCDRL_FTREASND" /><Alias Context="SDTM" Name="FTREASND" /></ItemDef><ItemDef OID="IT.ADASCOGSC_05_6_ADCCP_1.ADCCP_FTORRES" Name="ADCCP_FTORRES" DataType="text" Length="5"><Prompt><TranslatedText Type="text/plain" xml:lang="en">CONSTRUCTIONAL PRAXIS</TranslatedText></Prompt><CodeListRef CodeListOID="CL.ADASCOGSC_05_ADCCP_1.ADCCP_FTORRES" /><Alias Context="SDTM" Name="FTORRES when FTTESTCD = ADCCP" /></ItemDef><ItemDef OID="IT.ADASCOGSC_05_6_ADCCP_1.ADCCP_FTREASND" Name="ADCCP_FTREASND" DataType="text" Length="200"><Question><TranslatedText Type="text/plain" xml:lang="en">If any item(s) are incomplete or not done, please specify reason:</TranslatedText></Question><CodeListRef CodeListOID="CL.ADASCOGSC_05_ADCCP_1.ADCCP_FTREASND" /><Alias Context="SDTM" Name="FTREASND" /></ItemDef><ItemDef OID="IT.ADASCOGSC_06_7_ADCIP_1.ADCIP_FTORRES" Name="ADCIP_FTORRES" DataType="text" Length="5"><Prompt><TranslatedText Type="text/plain" xml:lang="en">IDEATIONAL PRAXIS</TranslatedText></Prompt><CodeListRef CodeListOID="CL.ADASCOGSC_06_ADCIP_1.ADCIP_FTORRES" /><Alias Context="SDTM" Name="FTORRES when FTTESTCD = ADCIP" /></ItemDef><ItemDef OID="IT.ADASCOGSC_06_7_ADCIP_1.ADCIP_FTREASND" Name="ADCIP_FTREASND" DataType="text" Length="200"><Question><TranslatedText Type="text/plain" xml:lang="en">If any item(s) are incomplete or not done, please specify reason:</TranslatedText></Question><CodeListRef CodeListOID="CL.ADASCOGSC_06_ADCIP_1.ADCIP_FTREASND" /><Alias Context="SDTM" Name="FTREASND" /></ItemDef><ItemDef OID="IT.ADASCOGSC_07_8_ADCOR_1.ADCOR_FTORRES" Name="ADCOR_FTORRES" DataType="integer" Length="2"><Prompt><TranslatedText Type="text/plain" xml:lang="en">ORIENTATION</TranslatedText></Prompt><CodeListRef CodeListOID="CL.ADASCOGSC_07_ADCOR_1.ADCOR_FTORRES" /><Alias Context="SDTM" Name="FTORRES when FTTESTCD = ADCOR" /></ItemDef><ItemDef OID="IT.ADASCOGSC_07_8_ADCOR_1.ADCOR_FTREASND" Name="ADCOR_FTREASND" DataType="text" Length="200"><Question><TranslatedText Type="text/plain" xml:lang="en">If any item(s) are incomplete or not done, please specify reason:</TranslatedText></Question><CodeListRef CodeListOID="CL.ADASCOGSC_07_ADCOR_1.ADCOR_FTREASND" /><Alias Context="SDTM" Name="FTREASND" /></ItemDef><ItemDef OID="IT.ADASCOGSC_08_9_ADCRGT01_1.ADCRGT01_FTORRES" Name="ADCRGT01_FTORRES" DataType="integer" Length="2"><Prompt><TranslatedText Type="text/plain" xml:lang="en">WORD RECOGNITION / TRIAL 1</TranslatedText></Prompt><Alias Context="SDTM" Name="FTORRES when FTTESTCD = ADCRGT01" /></ItemDef><ItemDef OID="IT.ADASCOGSC_08_9_ADCRGT01_1.ADCRGT01_FTREASND" Name="ADCRGT01_FTREASND" DataType="text" Length="200"><Question><TranslatedText Type="text/plain" xml:lang="en">If any item(s) are incomplete or not done, please specify reason:</TranslatedText></Question><CodeListRef CodeListOID="CL.ADASCOGSC_08_ADCRGT01_1.ADCRGT01_FTREASND" /><Alias Context="SDTM" Name="FTREASND" /></ItemDef><ItemDef OID="IT.ADASCOGSC_08_9_ADCRGT02_2.ADCRGT02_FTORRES" Name="ADCRGT02_FTORRES" DataType="integer" Length="2"><Prompt><TranslatedText Type="text/plain" xml:lang="en">WORD RECOGNITION / TRIAL 2</TranslatedText></Prompt><Alias Context="SDTM" Name="FTORRES when FTTESTCD = ADCRGT02" /></ItemDef><ItemDef OID="IT.ADASCOGSC_08_9_ADCRGT02_2.ADCRGT02_FTREASND" Name="ADCRGT02_FTREASND" DataType="text" Length="200"><Question><TranslatedText Type="text/plain" xml:lang="en">If any item(s) are incomplete or not done, please specify reason:</TranslatedText></Question><CodeListRef CodeListOID="CL.ADASCOGSC_08_ADCRGT02_2.ADCRGT02_FTREASND" /><Alias Context="SDTM" Name="FTREASND" /></ItemDef><ItemDef OID="IT.ADASCOGSC_08_9_ADCRGT03_3.ADCRGT03_FTORRES" Name="ADCRGT03_FTORRES" DataType="integer" Length="2"><Prompt><TranslatedText Type="text/plain" xml:lang="en">WORD RECOGNITION / TRIAL 3</TranslatedText></Prompt><Alias Context="SDTM" Name="FTORRES when FTTESTCD = ADCRGT03" /></ItemDef><ItemDef OID="IT.ADASCOGSC_08_9_ADCRGT03_3.ADCRGT03_FTREASND" Name="ADCRGT03_FTREASND" DataType="text" Length="200"><Question><TranslatedText Type="text/plain" xml:lang="en">If any item(s) are incomplete or not done, please specify reason:</TranslatedText></Question><CodeListRef CodeListOID="CL.ADASCOGSC_08_ADCRGT03_3.ADCRGT03_FTREASND" /><Alias Context="SDTM" Name="FTREASND" /></ItemDef><ItemDef OID="IT.ADASCOGSC_08_9_ADCRG_4.ADCRG_FTORRES" Name="ADCRG_FTORRES" DataType="decimal" Length="5"><Prompt><TranslatedText Type="text/plain" xml:lang="en">WORD RECOGNITION SUMMARY</TranslatedText></Prompt><CodeListRef CodeListOID="CL.ADASCOGSC_08_ADCRG_4.ADCRG_FTORRES" /><Alias Context="SDTM" Name="FTORRES when FTTESTCD = ADCRG" /></ItemDef><ItemDef OID="IT.ADASCOGSC_08_9_ADCRG_4.ADCRG_FTREASND" Name="ADCRG_FTREASND" DataType="text" Length="200"><Question><TranslatedText Type="text/plain" xml:lang="en">If any item(s) are incomplete or not done, please specify reason:</TranslatedText></Question><CodeListRef CodeListOID="CL.ADASCOGSC_08_ADCRG_4.ADCRG_FTREASND" /><Alias Context="SDTM" Name="FTREASND" /></ItemDef><ItemDef OID="IT.ADASCOGSC_09_10_ADCRI_1.ADCRI_FTORRES" Name="ADCRI_FTORRES" DataType="text" Length="5"><Prompt><TranslatedText Type="text/plain" xml:lang="en">REMEMBERING TEST INSTRUCTIONS</TranslatedText></Prompt><CodeListRef CodeListOID="CL.ADASCOGSC_09_ADCRI_1.ADCRI_FTORRES" /><Alias Context="SDTM" Name="FTORRES when FTTESTCD = ADCRI" /></ItemDef><ItemDef OID="IT.ADASCOGSC_09_10_ADCRI_1.ADCRI_FTREASND" Name="ADCRI_FTREASND" DataType="text" Length="200"><Question><TranslatedText Type="text/plain" xml:lang="en">If any item(s) are incomplete or not done, please specify reason:</TranslatedText></Question><CodeListRef CodeListOID="CL.ADASCOGSC_09_ADCRI_1.ADCRI_FTREASND" /><Alias Context="SDTM" Name="FTREASND" /></ItemDef><ItemDef OID="IT.ADASCOGSC_10_11_ADCSL_1.ADCSL_FTORRES" Name="ADCSL_FTORRES" DataType="text" Length="5"><Prompt><TranslatedText Type="text/plain" xml:lang="en">SPOKEN LANGUAGE ABILITY</TranslatedText></Prompt><CodeListRef CodeListOID="CL.ADASCOGSC_10_ADCSL_1.ADCSL_FTORRES" /><Alias Context="SDTM" Name="FTORRES when FTTESTCD = ADCSL" /></ItemDef><ItemDef OID="IT.ADASCOGSC_11_12_ADCDIF_1.ADCDIF_FTORRES" Name="ADCDIF_FTORRES" DataType="text" Length="5"><Prompt><TranslatedText Type="text/plain" xml:lang="en">WORD FINDING DIFFICULTY IN SPONTANEOUS SPEECH</TranslatedText></Prompt><CodeListRef CodeListOID="CL.ADASCOGSC_11_ADCDIF_1.ADCDIF_FTORRES" /><Alias Context="SDTM" Name="FTORRES when FTTESTCD = ADCDIF" /></ItemDef><ItemDef OID="IT.ADASCOGSC_11_12_ADCDIF_1.ADCDIF_FTREASND" Name="ADCDIF_FTREASND" DataType="text" Length="200"><Question><TranslatedText Type="text/plain" xml:lang="en">If any item(s) are incomplete or not done, please specify reason:</TranslatedText></Question><CodeListRef CodeListOID="CL.ADASCOGSC_11_ADCDIF_1.ADCDIF_FTREASND" /><Alias Context="SDTM" Name="FTREASND" /></ItemDef><ItemDef OID="IT.ADASCOGSC_12_13_ADCCMP_1.ADCCMP_FTORRES" Name="ADCCMP_FTORRES" DataType="text" Length="5"><Prompt><TranslatedText Type="text/plain" xml:lang="en">COMPREHENSION</TranslatedText></Prompt><CodeListRef CodeListOID="CL.ADASCOGSC_12_ADCCMP_1.ADCCMP_FTORRES" /><Alias Context="SDTM" Name="FTORRES when FTTESTCD = ADCCMP" /></ItemDef><ItemDef OID="IT.ADASCOGSC_13_14_ADCCON_1.ADCCON_FTORRES" Name="ADCCON_FTORRES" DataType="text" Length="5"><Prompt><TranslatedText Type="text/plain" xml:lang="en">CONCENTRATION/DISTRACTABILITY</TranslatedText></Prompt><CodeListRef CodeListOID="CL.ADASCOGSC_13_ADCCON_1.ADCCON_FTORRES" /><Alias Context="SDTM" Name="FTORRES when FTTESTCD = ADCCON" /></ItemDef><ItemDef OID="IT.ADASCOGSC_13_14_ADCCON_1.ADCCON_FTREASND" Name="ADCCON_FTREASND" DataType="text" Length="200"><Question><TranslatedText Type="text/plain" xml:lang="en">If any item(s) are incomplete or not done, please specify reason:</TranslatedText></Question><CodeListRef CodeListOID="CL.ADASCOGSC_13_ADCCON_1.ADCCON_FTREASND" /><Alias Context="SDTM" Name="FTREASND" /></ItemDef><ItemDef OID="IT.ADASCOGSC_14_15_ADCNC01_1.ADCNC01_FTORRES" Name="ADCNC01_FTORRES" DataType="integer" Length="3"><Prompt><TranslatedText Type="text/plain" xml:lang="en">NUMBER CANCELLATION: CORRECT</TranslatedText></Prompt><Alias Context="SDTM" Name="FTORRES when FTTESTCD = ADCNC01" /></ItemDef><ItemDef OID="IT.ADASCOGSC_14_15_ADCNC01_1.ADCNC01_FTREASND" Name="ADCNC01_FTREASND" DataType="text" Length="200"><Question><TranslatedText Type="text/plain" xml:lang="en">If any item(s) are incomplete or not done, please specify reason:</TranslatedText></Question><CodeListRef CodeListOID="CL.ADASCOGSC_14_ADCNC01_1.ADCNC01_FTREASND" /><Alias Context="SDTM" Name="FTREASND" /></ItemDef><ItemDef OID="IT.ADASCOGSC_14_15_ADCNC02_2.ADCNC02_FTORRES" Name="ADCNC02_FTORRES" DataType="integer" Length="3"><Prompt><TranslatedText Type="text/plain" xml:lang="en">NUMBER CANCELLATION: ERRORS</TranslatedText></Prompt><Alias Context="SDTM" Name="FTORRES when FTTESTCD = ADCNC02" /></ItemDef><ItemDef OID="IT.ADASCOGSC_14_15_ADCNC02_2.ADCNC02_FTREASND" Name="ADCNC02_FTREASND" DataType="text" Length="200"><Question><TranslatedText Type="text/plain" xml:lang="en">If any item(s) are incomplete or not done, please specify reason:</TranslatedText></Question><CodeListRef CodeListOID="CL.ADASCOGSC_14_ADCNC02_2.ADCNC02_FTREASND" /><Alias Context="SDTM" Name="FTREASND" /></ItemDef><ItemDef OID="IT.ADASCOGSC_14_15_ADCNC03_3.ADCNC03_FTORRES" Name="ADCNC03_FTORRES" DataType="integer" Length="3"><Prompt><TranslatedText Type="text/plain" xml:lang="en">NUMBER CANCELLATION: REMIND</TranslatedText></Prompt><Alias Context="SDTM" Name="FTORRES when FTTESTCD = ADCNC03" /></ItemDef><ItemDef OID="IT.ADASCOGSC_14_15_ADCNC03_3.ADCNC03_FTREASND" Name="ADCNC03_FTREASND" DataType="text" Length="200"><Question><TranslatedText Type="text/plain" xml:lang="en">If any item(s) are incomplete or not done, please specify reason:</TranslatedText></Question><CodeListRef CodeListOID="CL.ADASCOGSC_14_ADCNC03_3.ADCNC03_FTREASND" /><Alias Context="SDTM" Name="FTREASND" /></ItemDef><ItemDef OID="IT.ADASCOGSC_14_15_ADCNC_4.ADCNC_FTORRES" Name="ADCNC_FTORRES" DataType="integer" Length="3"><Prompt><TranslatedText Type="text/plain" xml:lang="en">NUMBER CANCELLATION SUMMARY</TranslatedText></Prompt><Alias Context="SDTM" Name="FTORRES when FTTESTCD = ADCNC" /></ItemDef><ItemDef OID="IT.ADASCOGSC_14_15_ADCNC_4.ADCNC_FTREASND" Name="ADCNC_FTREASND" DataType="text" Length="200"><Question><TranslatedText Type="text/plain" xml:lang="en">If any item(s) are incomplete or not done, please specify reason:</TranslatedText></Question><CodeListRef CodeListOID="CL.ADASCOGSC_14_ADCNC_4.ADCNC_FTREASND" /><Alias Context="SDTM" Name="FTREASND" /></ItemDef><ItemDef OID="IT.ADASCOGSC_15_16_ADCMZ01_1.ADCMZ01_FTORRES" Name="ADCMZ01_FTORRES" DataType="integer" Length="3"><Prompt><TranslatedText Type="text/plain" xml:lang="en">EXECUTIVE FUNCTION: NUMBER ERRORS</TranslatedText></Prompt><CodeListRef CodeListOID="CL.ADASCOGSC_15_ADCMZ01_1.ADCMZ01_FTORRES" /><Alias Context="SDTM" Name="FTORRES when FTTESTCD = ADCMZ01" /></ItemDef><ItemDef OID="IT.ADASCOGSC_15_16_ADCMZ01_1.ADCMZ01_FTREASND" Name="ADCMZ01_FTREASND" DataType="text" Length="200"><Question><TranslatedText Type="text/plain" xml:lang="en">If any item(s) are incomplete or not done, please specify reason:</TranslatedText></Question><CodeListRef CodeListOID="CL.ADASCOGSC_15_ADCMZ01_1.ADCMZ01_FTREASND" /><Alias Context="SDTM" Name="FTREASND" /></ItemDef><ItemDef OID="IT.ADASCOGSC_15_16_ADCMZ02_2.ADCMZ02_FTORRES" Name="ADCMZ02_FTORRES" DataType="integer" Length="3"><Prompt><TranslatedText Type="text/plain" xml:lang="en">EXECUTIVE FUNCTION: TIME</TranslatedText></Prompt><Alias Context="SDTM" Name="FTORRES when FTTESTCD = ADCMZ02" /></ItemDef><ItemDef OID="IT.ADASCOGSC_15_16_ADCMZ02_2.ADCMZ02_FTORRESU" Name="ADCMZ02_FTORRESU" DataType="text" Length="5"><Prompt><TranslatedText Type="text/plain" xml:lang="en">Unit</TranslatedText></Prompt><Alias Context="SDTM" Name="FTORRESU when FTTESTCD = ADCMZ02" /></ItemDef><ItemDef OID="IT.ADASCOGSC_15_16_ADCMZ02_2.ADCMZ02_FTREASND" Name="ADCMZ02_FTREASND" DataType="text" Length="200"><Question><TranslatedText Type="text/plain" xml:lang="en">If any item(s) are incomplete or not done, please specify reason:</TranslatedText></Question><CodeListRef CodeListOID="CL.ADASCOGSC_15_ADCMZ02_2.ADCMZ02_FTREASND" /><Alias Context="SDTM" Name="FTREASND" /></ItemDef><ItemDef OID="IT.ADASCOGSC_15_16_ADCMZ_3.ADCMZ_FTORRES" Name="ADCMZ_FTORRES" DataType="integer" Length="3"><Prompt><TranslatedText Type="text/plain" xml:lang="en">EXECUTIVE FUNCTION SUMMARY</TranslatedText></Prompt><Alias Context="SDTM" Name="FTORRES when FTTESTCD = ADCMZ" /></ItemDef><ItemDef OID="IT.ADASCOGSC_15_16_ADCMZ_3.ADCMZ_FTREASND" Name="ADCMZ_FTREASND" DataType="text" Length="200"><Question><TranslatedText Type="text/plain" xml:lang="en">If any item(s) are incomplete or not done, please specify reason:</TranslatedText></Question><CodeListRef CodeListOID="CL.ADASCOGSC_15_ADCMZ_3.ADCMZ_FTREASND" /><Alias Context="SDTM" Name="FTREASND" /></ItemDef><CodeList OID="CL.ADASCOG_01_ADASCOG_1.ADASCOG_FTCAT.C115304" Name="FTCAT" DataType="text"><CodeListItem CodedValue="ADAS-COG"><Coding System="https://www.cdisc.org/standards/terminology" Code="C100191" SystemName="CDISC/NCI CT" /></CodeListItem><Coding System="https://www.cdisc.org/standards/terminology" Code="C115304" SystemName="CDISC/NCI CT" /></CodeList><CodeList OID="CL.ADASCOG_01_ADASCOG_1.ADASCOG_FTPERF.C66742" Name="NY" DataType="text"><CodeListItem CodedValue="N"><Decode><TranslatedText Type="text/plain" xml:lang="en">No</TranslatedText></Decode></CodeListItem><CodeListItem CodedValue="Y"><Decode><TranslatedText Type="text/plain" xml:lang="en">Yes</TranslatedText></Decode></CodeListItem><Coding System="https://www.cdisc.org/standards/terminology" Code="C66742" SystemName="CDISC/NCI CT" /></CodeList><CodeList OID="CL.ADASCOG_01_ADASCOG_1.ADASCOG_FTREASND" Name="ADASCOG-FTREASND" DataType="text"><CodeListItem CodedValue="Participant refused"><Decode><TranslatedText Type="text/plain" xml:lang="en">Participant refused</TranslatedText></Decode></CodeListItem><CodeListItem CodedValue="Participant unable for physical reasons"><Decode><TranslatedText Type="text/plain" xml:lang="en">Participant unable for physical reasons</TranslatedText></Decode></CodeListItem><CodeListItem CodedValue="Participant unable for cognitive reasons"><Decode><TranslatedText Type="text/plain" xml:lang="en">Participant unable for cognitive reasons</TranslatedText></Decode></CodeListItem><CodeListItem CodedValue="Not done for reasons other than physical/cognitive"><Decode><TranslatedText Type="text/plain" xml:lang="en">Not done for reasons other than physical/cognitive</TranslatedText></Decode></CodeListItem></CodeList><CodeList OID="CL.ADASCOGSC_01_ADCRLT01_1.ADCRLT01_FTREASND" Name="ADCRLT01-FTREASND" DataType="text"><CodeListItem CodedValue="Participant refused"><Decode><TranslatedText Type="text/plain" xml:lang="en">Participant refused</TranslatedText></Decode></CodeListItem><CodeListItem CodedValue="Participant unable for physical reasons"><Decode><TranslatedText Type="text/plain" xml:lang="en">Participant unable for physical reasons</TranslatedText></Decode></CodeListItem><CodeListItem CodedValue="Participant unable for cognitive reasons"><Decode><TranslatedText Type="text/plain" xml:lang="en">Participant unable for cognitive reasons</TranslatedText></Decode></CodeListItem><CodeListItem CodedValue="Not done for reasons other than physical/cognitive"><Decode><TranslatedText Type="text/plain" xml:lang="en">Not done for reasons other than physical/cognitive</TranslatedText></Decode></CodeListItem></CodeList><CodeList OID="CL.ADASCOGSC_01_ADCRLT02_2.ADCRLT02_FTREASND" Name="ADCRLT02-FTREASND" DataType="text"><CodeListItem CodedValue="Participant refused"><Decode><TranslatedText Type="text/plain" xml:lang="en">Participant refused</TranslatedText></Decode></CodeListItem><CodeListItem CodedValue="Participant unable for physical reasons"><Decode><TranslatedText Type="text/plain" xml:lang="en">Participant unable for physical reasons</TranslatedText></Decode></CodeListItem><CodeListItem CodedValue="Participant unable for cognitive reasons"><Decode><TranslatedText Type="text/plain" xml:lang="en">Participant unable for cognitive reasons</TranslatedText></Decode></CodeListItem><CodeListItem CodedValue="Not done for reasons other than physical/cognitive"><Decode><TranslatedText Type="text/plain" xml:lang="en">Not done for reasons other than physical/cognitive</TranslatedText></Decode></CodeListItem></CodeList><CodeList OID="CL.ADASCOGSC_01_ADCRLT03_3.ADCRLT03_FTREASND" Name="ADCRLT03-FTREASND" DataType="text"><CodeListItem CodedValue="Participant refused"><Decode><TranslatedText Type="text/plain" xml:lang="en">Participant refused</TranslatedText></Decode></CodeListItem><CodeListItem CodedValue="Participant unable for physical reasons"><Decode><TranslatedText Type="text/plain" xml:lang="en">Participant unable for physical reasons</TranslatedText></Decode></CodeListItem><CodeListItem CodedValue="Participant unable for cognitive reasons"><Decode><TranslatedText Type="text/plain" xml:lang="en">Participant unable for cognitive reasons</TranslatedText></Decode></CodeListItem><CodeListItem CodedValue="Not done for reasons other than physical/cognitive"><Decode><TranslatedText Type="text/plain" xml:lang="en">Not done for reasons other than physical/cognitive</TranslatedText></Decode></CodeListItem></CodeList><CodeList OID="CL.ADASCOGSC_01_ADCRL_4.ADCRL_FTORRES" Name="ADCRL-FTORRES" DataType="decimal"><CodeListItem CodedValue="0"><Decode><TranslatedText Type="text/plain" xml:lang="en">0</TranslatedText></Decode></CodeListItem><CodeListItem CodedValue="0.33"><Decode><TranslatedText Type="text/plain" xml:lang="en">0.33</TranslatedText></Decode></CodeListItem><CodeListItem CodedValue="0.67"><Decode><TranslatedText Type="text/plain" xml:lang="en">0.67</TranslatedText></Decode></CodeListItem><CodeListItem CodedValue="1"><Decode><TranslatedText Type="text/plain" xml:lang="en">1</TranslatedText></Decode></CodeListItem><CodeListItem CodedValue="1.33"><Decode><TranslatedText Type="text/plain" xml:lang="en">1.33</TranslatedText></Decode></CodeListItem><CodeListItem CodedValue="1.67"><Decode><TranslatedText Type="text/plain" xml:lang="en">1.67</TranslatedText></Decode></CodeListItem><CodeListItem CodedValue="2"><Decode><TranslatedText Type="text/plain" xml:lang="en">2</TranslatedText></Decode></CodeListItem><CodeListItem CodedValue="2.33"><Decode><TranslatedText Type="text/plain" xml:lang="en">2.33</TranslatedText></Decode></CodeListItem><CodeListItem CodedValue="2.67"><Decode><TranslatedText Type="text/plain" xml:lang="en">2.67</TranslatedText></Decode></CodeListItem><CodeListItem CodedValue="3"><Decode><TranslatedText Type="text/plain" xml:lang="en">3</TranslatedText></Decode></CodeListItem><CodeListItem CodedValue="3.33"><Decode><TranslatedText Type="text/plain" xml:lang="en">3.33</TranslatedText></Decode></CodeListItem><CodeListItem CodedValue="3.67"><Decode><TranslatedText Type="text/plain" xml:lang="en">3.67</TranslatedText></Decode></CodeListItem><CodeListItem CodedValue="4"><Decode><TranslatedText Type="text/plain" xml:lang="en">4</TranslatedText></Decode></CodeListItem><CodeListItem CodedValue="4.33"><Decode><TranslatedText Type="text/plain" xml:lang="en">4.33</TranslatedText></Decode></CodeListItem><CodeListItem CodedValue="4.67"><Decode><TranslatedText Type="text/plain" xml:lang="en">4.67</TranslatedText></Decode></CodeListItem><CodeListItem CodedValue="5"><Decode><TranslatedText Type="text/plain" xml:lang="en">5</TranslatedText></Decode></CodeListItem><CodeListItem CodedValue="5.33"><Decode><TranslatedText Type="text/plain" xml:lang="en">5.33</TranslatedText></Decode></CodeListItem><CodeListItem CodedValue="5.67"><Decode><TranslatedText Type="text/plain" xml:lang="en">5.67</TranslatedText></Decode></CodeListItem><CodeListItem CodedValue="6"><Decode><TranslatedText Type="text/plain" xml:lang="en">6</TranslatedText></Decode></CodeListItem><CodeListItem CodedValue="6.33"><Decode><TranslatedText Type="text/plain" xml:lang="en">6.33</TranslatedText></Decode></CodeListItem><CodeListItem CodedValue="6.67"><Decode><TranslatedText Type="text/plain" xml:lang="en">6.67</TranslatedText></Decode></CodeListItem><CodeListItem CodedValue="7"><Decode><TranslatedText Type="text/plain" xml:lang="en">7</TranslatedText></Decode></CodeListItem><CodeListItem CodedValue="7.33"><Decode><TranslatedText Type="text/plain" xml:lang="en">7.33</TranslatedText></Decode></CodeListItem><CodeListItem CodedValue="7.67"><Decode><TranslatedText Type="text/plain" xml:lang="en">7.67</TranslatedText></Decode></CodeListItem><CodeListItem CodedValue="8"><Decode><TranslatedText Type="text/plain" xml:lang="en">8</TranslatedText></Decode></CodeListItem><CodeListItem CodedValue="8.33"><Decode><TranslatedText Type="text/plain" xml:lang="en">8.33</TranslatedText></Decode></CodeListItem><CodeListItem CodedValue="8.67"><Decode><TranslatedText Type="text/plain" xml:lang="en">8.67</TranslatedText></Decode></CodeListItem><CodeListItem CodedValue="9"><Decode><TranslatedText Type="text/plain" xml:lang="en">9</TranslatedText></Decode></CodeListItem><CodeListItem CodedValue="9.33"><Decode><TranslatedText Type="text/plain" xml:lang="en">9.33</TranslatedText></Decode></CodeListItem><CodeListItem CodedValue="9.67"><Decode><TranslatedText Type="text/plain" xml:lang="en">9.67</TranslatedText></Decode></CodeListItem><CodeListItem CodedValue="10"><Decode><TranslatedText Type="text/plain" xml:lang="en">10</TranslatedText></Decode></CodeListItem></CodeList><CodeList OID="CL.ADASCOGSC_01_ADCRL_4.ADCRL_FTREASND" Name="ADCRL-FTREASND" DataType="text"><CodeListItem CodedValue="Participant refused"><Decode><TranslatedText Type="text/plain" xml:lang="en">Participant refused</TranslatedText></Decode></CodeListItem><CodeListItem CodedValue="Participant unable for physical reasons"><Decode><TranslatedText Type="text/plain" xml:lang="en">Participant unable for physical reasons</TranslatedText></Decode></CodeListItem><CodeListItem CodedValue="Participant unable for cognitive reasons"><Decode><TranslatedText Type="text/plain" xml:lang="en">Participant unable for cognitive reasons</TranslatedText></Decode></CodeListItem><CodeListItem CodedValue="Not done for reasons other than physical/cognitive"><Decode><TranslatedText Type="text/plain" xml:lang="en">Not done for reasons other than physical/cognitive</TranslatedText></Decode></CodeListItem></CodeList><CodeList OID="CL.ADASCOGSC_02_ADCOF_1.ADCOF_FTORRES" Name="ADCOF-FTORRES" DataType="text"><CodeListItem CodedValue="0-2 items (objects and fingers) named incorrectly"><Decode><TranslatedText Type="text/plain" xml:lang="en">0-2 items (objects and fingers) named incorrectly</TranslatedText></Decode></CodeListItem><CodeListItem CodedValue="3-5 items (objects and fingers) named incorrectly"><Decode><TranslatedText Type="text/plain" xml:lang="en">3-5 items (objects and fingers) named incorrectly</TranslatedText></Decode></CodeListItem><CodeListItem CodedValue="6-8 items (objects and fingers) named incorrectly"><Decode><TranslatedText Type="text/plain" xml:lang="en">6-8 items (objects and fingers) named incorrectly</TranslatedText></Decode></CodeListItem><CodeListItem CodedValue="9-11 items (objects and fingers) named incorrectly"><Decode><TranslatedText Type="text/plain" xml:lang="en">9-11 items (objects and fingers) named incorrectly</TranslatedText></Decode></CodeListItem><CodeListItem CodedValue="12-14 items (objects and fingers) named incorrectly"><Decode><TranslatedText Type="text/plain" xml:lang="en">12-14 items (objects and fingers) named incorrectly</TranslatedText></Decode></CodeListItem><CodeListItem CodedValue="15-17 items (objects and fingers) named incorrectly"><Decode><TranslatedText Type="text/plain" xml:lang="en">15-17 items (objects and fingers) named incorrectly</TranslatedText></Decode></CodeListItem></CodeList><CodeList OID="CL.ADASCOGSC_02_ADCOF_1.ADCOF_FTREASND" Name="ADCOF-FTREASND" DataType="text"><CodeListItem CodedValue="Participant refused"><Decode><TranslatedText Type="text/plain" xml:lang="en">Participant refused</TranslatedText></Decode></CodeListItem><CodeListItem CodedValue="Participant unable for physical reasons"><Decode><TranslatedText Type="text/plain" xml:lang="en">Participant unable for physical reasons</TranslatedText></Decode></CodeListItem><CodeListItem CodedValue="Participant unable for cognitive reasons"><Decode><TranslatedText Type="text/plain" xml:lang="en">Participant unable for cognitive reasons</TranslatedText></Decode></CodeListItem><CodeListItem CodedValue="Not done for reasons other than physical/cognitive"><Decode><TranslatedText Type="text/plain" xml:lang="en">Not done for reasons other than physical/cognitive</TranslatedText></Decode></CodeListItem></CodeList><CodeList OID="CL.ADASCOGSC_03_ADCCMD_1.ADCCMD_FTORRES" Name="ADCCMD-FTORRES" DataType="text"><CodeListItem CodedValue="all commands correct"><Decode><TranslatedText Type="text/plain" xml:lang="en">All commands correct</TranslatedText></Decode></CodeListItem><CodeListItem CodedValue="1 command incorrect"><Decode><TranslatedText Type="text/plain" xml:lang="en">1 command incorrect</TranslatedText></Decode></CodeListItem><CodeListItem CodedValue="2 commands incorrect"><Decode><TranslatedText Type="text/plain" xml:lang="en">2 commands incorrect</TranslatedText></Decode></CodeListItem><CodeListItem CodedValue="3 commands incorrect"><Decode><TranslatedText Type="text/plain" xml:lang="en">3 commands incorrect</TranslatedText></Decode></CodeListItem><CodeListItem CodedValue="4 commands incorrect"><Decode><TranslatedText Type="text/plain" xml:lang="en">4 commands incorrect</TranslatedText></Decode></CodeListItem><CodeListItem CodedValue="all 5 commands incorrect"><Decode><TranslatedText Type="text/plain" xml:lang="en">all 5 commands incorrect</TranslatedText></Decode></CodeListItem></CodeList><CodeList OID="CL.ADASCOGSC_03_ADCCMD_1.ADCCMD_FTREASND" Name="ADCCMD-FTREASND" DataType="text"><CodeListItem CodedValue="Participant refused"><Decode><TranslatedText Type="text/plain" xml:lang="en">Participant refused</TranslatedText></Decode></CodeListItem><CodeListItem CodedValue="Participant unable for physical reasons"><Decode><TranslatedText Type="text/plain" xml:lang="en">Participant unable for physical reasons</TranslatedText></Decode></CodeListItem><CodeListItem CodedValue="Participant unable for cognitive reasons"><Decode><TranslatedText Type="text/plain" xml:lang="en">Participant unable for cognitive reasons</TranslatedText></Decode></CodeListItem><CodeListItem CodedValue="Not done for reasons other than physical/cognitive"><Decode><TranslatedText Type="text/plain" xml:lang="en">Not done for reasons other than physical/cognitive</TranslatedText></Decode></CodeListItem></CodeList><CodeList OID="CL.ADASCOGSC_04_ADCDRL_1.ADCDRL_FTORRES" Name="ADCDRL-FTORRES" DataType="integer"><CodeListItem CodedValue="0"><Decode><TranslatedText Type="text/plain" xml:lang="en">0</TranslatedText></Decode></CodeListItem><CodeListItem CodedValue="1"><Decode><TranslatedText Type="text/plain" xml:lang="en">1</TranslatedText></Decode></CodeListItem><CodeListItem CodedValue="2"><Decode><TranslatedText Type="text/plain" xml:lang="en">2</TranslatedText></Decode></CodeListItem><CodeListItem CodedValue="3"><Decode><TranslatedText Type="text/plain" xml:lang="en">3</TranslatedText></Decode></CodeListItem><CodeListItem CodedValue="4"><Decode><TranslatedText Type="text/plain" xml:lang="en">4</TranslatedText></Decode></CodeListItem><CodeListItem CodedValue="5"><Decode><TranslatedText Type="text/plain" xml:lang="en">5</TranslatedText></Decode></CodeListItem><CodeListItem CodedValue="6"><Decode><TranslatedText Type="text/plain" xml:lang="en">6</TranslatedText></Decode></CodeListItem><CodeListItem CodedValue="7"><Decode><TranslatedText Type="text/plain" xml:lang="en">7</TranslatedText></Decode></CodeListItem><CodeListItem CodedValue="8"><Decode><TranslatedText Type="text/plain" xml:lang="en">8</TranslatedText></Decode></CodeListItem><CodeListItem CodedValue="9"><Decode><TranslatedText Type="text/plain" xml:lang="en">9</TranslatedText></Decode></CodeListItem><CodeListItem CodedValue="10"><Decode><TranslatedText Type="text/plain" xml:lang="en">10</TranslatedText></Decode></CodeListItem></CodeList><CodeList OID="CL.ADASCOGSC_04_ADCDRL_1.ADCDRL_FTREASND" Name="ADCDRL-FTREASND" DataType="text"><CodeListItem CodedValue="Participant refused"><Decode><TranslatedText Type="text/plain" xml:lang="en">Participant refused</TranslatedText></Decode></CodeListItem><CodeListItem CodedValue="Participant unable for physical reasons"><Decode><TranslatedText Type="text/plain" xml:lang="en">Participant unable for physical reasons</TranslatedText></Decode></CodeListItem><CodeListItem CodedValue="Participant unable for cognitive reasons"><Decode><TranslatedText Type="text/plain" xml:lang="en">Participant unable for cognitive reasons</TranslatedText></Decode></CodeListItem><CodeListItem CodedValue="Not done for reasons other than physical/cognitive"><Decode><TranslatedText Type="text/plain" xml:lang="en">Not done for reasons other than physical/cognitive</TranslatedText></Decode></CodeListItem></CodeList><CodeList OID="CL.ADASCOGSC_05_ADCCP_1.ADCCP_FTORRES" Name="ADCCP-FTORRES" DataType="text"><CodeListItem CodedValue="all 4 drawings correct"><Decode><TranslatedText Type="text/plain" xml:lang="en">All 4 drawings correct</TranslatedText></Decode></CodeListItem><CodeListItem CodedValue="1 form drawn incorrectly"><Decode><TranslatedText Type="text/plain" xml:lang="en">1 form drawn incorrectly</TranslatedText></Decode></CodeListItem><CodeListItem CodedValue="2 forms drawn incorrectly"><Decode><TranslatedText Type="text/plain" xml:lang="en">2 forms drawn incorrectly</TranslatedText></Decode></CodeListItem><CodeListItem CodedValue="3 forms drawn incorrectly"><Decode><TranslatedText Type="text/plain" xml:lang="en">3 forms drawn incorrectly</TranslatedText></Decode></CodeListItem><CodeListItem CodedValue="4 forms drawn incorrectly (but one or more side/section of at least one shape drawn)"><Decode><TranslatedText Type="text/plain" xml:lang="en">4 forms drawn incorrectly (but one or more side/section of at least one shape drawn)</TranslatedText></Decode></CodeListItem><CodeListItem CodedValue="No figures drawn, no recognizable attempt at drawing any side/section of any figure"><Decode><TranslatedText Type="text/plain" xml:lang="en">No figures drawn, no recognizable attempt at drawing any side/section of any figure</TranslatedText></Decode></CodeListItem></CodeList><CodeList OID="CL.ADASCOGSC_05_ADCCP_1.ADCCP_FTREASND" Name="ADCCP-FTREASND" DataType="text"><CodeListItem CodedValue="Participant refused"><Decode><TranslatedText Type="text/plain" xml:lang="en">Participant refused</TranslatedText></Decode></CodeListItem><CodeListItem CodedValue="Participant unable for physical reasons"><Decode><TranslatedText Type="text/plain" xml:lang="en">Participant unable for physical reasons</TranslatedText></Decode></CodeListItem><CodeListItem CodedValue="Participant unable for cognitive reasons"><Decode><TranslatedText Type="text/plain" xml:lang="en">Participant unable for cognitive reasons</TranslatedText></Decode></CodeListItem><CodeListItem CodedValue="Not done for reasons other than physical/cognitive"><Decode><TranslatedText Type="text/plain" xml:lang="en">Not done for reasons other than physical/cognitive</TranslatedText></Decode></CodeListItem></CodeList><CodeList OID="CL.ADASCOGSC_06_ADCIP_1.ADCIP_FTORRES" Name="ADCIP-FTORRES" DataType="text"><CodeListItem CodedValue="all components performed correctly"><Decode><TranslatedText Type="text/plain" xml:lang="en">All components performed correctly</TranslatedText></Decode></CodeListItem><CodeListItem CodedValue="failure to perform 1 component"><Decode><TranslatedText Type="text/plain" xml:lang="en">Failure to perform 1 component</TranslatedText></Decode></CodeListItem><CodeListItem CodedValue="failure to perform 2 components"><Decode><TranslatedText Type="text/plain" xml:lang="en">Failure to perform 2 components</TranslatedText></Decode></CodeListItem><CodeListItem CodedValue="failure to perform 3 components"><Decode><TranslatedText Type="text/plain" xml:lang="en">Failure to perform 3 components</TranslatedText></Decode></CodeListItem><CodeListItem CodedValue="failure to perform 4 components"><Decode><TranslatedText Type="text/plain" xml:lang="en">Failure to perform 4 components</TranslatedText></Decode></CodeListItem><CodeListItem CodedValue="failure to perform 5 components"><Decode><TranslatedText Type="text/plain" xml:lang="en">Failure to perform 5 components</TranslatedText></Decode></CodeListItem></CodeList><CodeList OID="CL.ADASCOGSC_06_ADCIP_1.ADCIP_FTREASND" Name="ADCIP-FTREASND" DataType="text"><CodeListItem CodedValue="Participant refused"><Decode><TranslatedText Type="text/plain" xml:lang="en">Participant refused</TranslatedText></Decode></CodeListItem><CodeListItem CodedValue="Participant unable for physical reasons"><Decode><TranslatedText Type="text/plain" xml:lang="en">Participant unable for physical reasons</TranslatedText></Decode></CodeListItem><CodeListItem CodedValue="Participant unable for cognitive reasons"><Decode><TranslatedText Type="text/plain" xml:lang="en">Participant unable for cognitive reasons</TranslatedText></Decode></CodeListItem><CodeListItem CodedValue="Not done for reasons other than physical/cognitive"><Decode><TranslatedText Type="text/plain" xml:lang="en">Not done for reasons other than physical/cognitive</TranslatedText></Decode></CodeListItem></CodeList><CodeList OID="CL.ADASCOGSC_07_ADCOR_1.ADCOR_FTORRES" Name="ADCOR-FTORRES" DataType="integer"><CodeListItem CodedValue="0"><Decode><TranslatedText Type="text/plain" xml:lang="en">0</TranslatedText></Decode></CodeListItem><CodeListItem CodedValue="1"><Decode><TranslatedText Type="text/plain" xml:lang="en">1</TranslatedText></Decode></CodeListItem><CodeListItem CodedValue="2"><Decode><TranslatedText Type="text/plain" xml:lang="en">2</TranslatedText></Decode></CodeListItem><CodeListItem CodedValue="3"><Decode><TranslatedText Type="text/plain" xml:lang="en">3</TranslatedText></Decode></CodeListItem><CodeListItem CodedValue="4"><Decode><TranslatedText Type="text/plain" xml:lang="en">4</TranslatedText></Decode></CodeListItem><CodeListItem CodedValue="5"><Decode><TranslatedText Type="text/plain" xml:lang="en">5</TranslatedText></Decode></CodeListItem><CodeListItem CodedValue="6"><Decode><TranslatedText Type="text/plain" xml:lang="en">6</TranslatedText></Decode></CodeListItem><CodeListItem CodedValue="7"><Decode><TranslatedText Type="text/plain" xml:lang="en">7</TranslatedText></Decode></CodeListItem><CodeListItem CodedValue="8"><Decode><TranslatedText Type="text/plain" xml:lang="en">8</TranslatedText></Decode></CodeListItem></CodeList><CodeList OID="CL.ADASCOGSC_07_ADCOR_1.ADCOR_FTREASND" Name="ADCOR-FTREASND" DataType="text"><CodeListItem CodedValue="Participant refused"><Decode><TranslatedText Type="text/plain" xml:lang="en">Participant refused</TranslatedText></Decode></CodeListItem><CodeListItem CodedValue="Participant unable for physical reasons"><Decode><TranslatedText Type="text/plain" xml:lang="en">Participant unable for physical reasons</TranslatedText></Decode></CodeListItem><CodeListItem CodedValue="Participant unable for cognitive reasons"><Decode><TranslatedText Type="text/plain" xml:lang="en">Participant unable for cognitive reasons</TranslatedText></Decode></CodeListItem><CodeListItem CodedValue="Not done for reasons other than physical/cognitive"><Decode><TranslatedText Type="text/plain" xml:lang="en">Not done for reasons other than physical/cognitive</TranslatedText></Decode></CodeListItem></CodeList><CodeList OID="CL.ADASCOGSC_08_ADCRGT01_1.ADCRGT01_FTREASND" Name="ADCRGT01-FTREASND" DataType="text"><CodeListItem CodedValue="Participant refused"><Decode><TranslatedText Type="text/plain" xml:lang="en">Participant refused</TranslatedText></Decode></CodeListItem><CodeListItem CodedValue="Participant unable for physical reasons"><Decode><TranslatedText Type="text/plain" xml:lang="en">Participant unable for physical reasons</TranslatedText></Decode></CodeListItem><CodeListItem CodedValue="Participant unable for cognitive reasons"><Decode><TranslatedText Type="text/plain" xml:lang="en">Participant unable for cognitive reasons</TranslatedText></Decode></CodeListItem><CodeListItem CodedValue="Not done for reasons other than physical/cognitive"><Decode><TranslatedText Type="text/plain" xml:lang="en">Not done for reasons other than physical/cognitive</TranslatedText></Decode></CodeListItem></CodeList><CodeList OID="CL.ADASCOGSC_08_ADCRGT02_2.ADCRGT02_FTREASND" Name="ADCRGT02-FTREASND" DataType="text"><CodeListItem CodedValue="Participant refused"><Decode><TranslatedText Type="text/plain" xml:lang="en">Participant refused</TranslatedText></Decode></CodeListItem><CodeListItem CodedValue="Participant unable for physical reasons"><Decode><TranslatedText Type="text/plain" xml:lang="en">Participant unable for physical reasons</TranslatedText></Decode></CodeListItem><CodeListItem CodedValue="Participant unable for cognitive reasons"><Decode><TranslatedText Type="text/plain" xml:lang="en">Participant unable for cognitive reasons</TranslatedText></Decode></CodeListItem><CodeListItem CodedValue="Not done for reasons other than physical/cognitive"><Decode><TranslatedText Type="text/plain" xml:lang="en">Not done for reasons other than physical/cognitive</TranslatedText></Decode></CodeListItem></CodeList><CodeList OID="CL.ADASCOGSC_08_ADCRGT03_3.ADCRGT03_FTREASND" Name="ADCRGT03-FTREASND" DataType="text"><CodeListItem CodedValue="Participant refused"><Decode><TranslatedText Type="text/plain" xml:lang="en">Participant refused</TranslatedText></Decode></CodeListItem><CodeListItem CodedValue="Participant unable for physical reasons"><Decode><TranslatedText Type="text/plain" xml:lang="en">Participant unable for physical reasons</TranslatedText></Decode></CodeListItem><CodeListItem CodedValue="Participant unable for cognitive reasons"><Decode><TranslatedText Type="text/plain" xml:lang="en">Participant unable for cognitive reasons</TranslatedText></Decode></CodeListItem><CodeListItem CodedValue="Not done for reasons other than physical/cognitive"><Decode><TranslatedText Type="text/plain" xml:lang="en">Not done for reasons other than physical/cognitive</TranslatedText></Decode></CodeListItem></CodeList><CodeList OID="CL.ADASCOGSC_08_ADCRG_4.ADCRG_FTORRES" Name="ADCRG-FTORRES" DataType="decimal"><CodeListItem CodedValue="0"><Decode><TranslatedText Type="text/plain" xml:lang="en">0</TranslatedText></Decode></CodeListItem><CodeListItem CodedValue="0.33"><Decode><TranslatedText Type="text/plain" xml:lang="en">0.33</TranslatedText></Decode></CodeListItem><CodeListItem CodedValue="0.67"><Decode><TranslatedText Type="text/plain" xml:lang="en">0.67</TranslatedText></Decode></CodeListItem><CodeListItem CodedValue="1"><Decode><TranslatedText Type="text/plain" xml:lang="en">1</TranslatedText></Decode></CodeListItem><CodeListItem CodedValue="1.33"><Decode><TranslatedText Type="text/plain" xml:lang="en">1.33</TranslatedText></Decode></CodeListItem><CodeListItem CodedValue="1.67"><Decode><TranslatedText Type="text/plain" xml:lang="en">1.67</TranslatedText></Decode></CodeListItem><CodeListItem CodedValue="2"><Decode><TranslatedText Type="text/plain" xml:lang="en">2</TranslatedText></Decode></CodeListItem><CodeListItem CodedValue="2.33"><Decode><TranslatedText Type="text/plain" xml:lang="en">2.33</TranslatedText></Decode></CodeListItem><CodeListItem CodedValue="2.67"><Decode><TranslatedText Type="text/plain" xml:lang="en">2.67</TranslatedText></Decode></CodeListItem><CodeListItem CodedValue="3"><Decode><TranslatedText Type="text/plain" xml:lang="en">3</TranslatedText></Decode></CodeListItem><CodeListItem CodedValue="3.33"><Decode><TranslatedText Type="text/plain" xml:lang="en">3.33</TranslatedText></Decode></CodeListItem><CodeListItem CodedValue="3.67"><Decode><TranslatedText Type="text/plain" xml:lang="en">3.67</TranslatedText></Decode></CodeListItem><CodeListItem CodedValue="4"><Decode><TranslatedText Type="text/plain" xml:lang="en">4</TranslatedText></Decode></CodeListItem><CodeListItem CodedValue="4.33"><Decode><TranslatedText Type="text/plain" xml:lang="en">4.33</TranslatedText></Decode></CodeListItem><CodeListItem CodedValue="4.67"><Decode><TranslatedText Type="text/plain" xml:lang="en">4.67</TranslatedText></Decode></CodeListItem><CodeListItem CodedValue="5"><Decode><TranslatedText Type="text/plain" xml:lang="en">5</TranslatedText></Decode></CodeListItem><CodeListItem CodedValue="5.33"><Decode><TranslatedText Type="text/plain" xml:lang="en">5.33</TranslatedText></Decode></CodeListItem><CodeListItem CodedValue="5.67"><Decode><TranslatedText Type="text/plain" xml:lang="en">5.67</TranslatedText></Decode></CodeListItem><CodeListItem CodedValue="6"><Decode><TranslatedText Type="text/plain" xml:lang="en">6</TranslatedText></Decode></CodeListItem><CodeListItem CodedValue="6.33"><Decode><TranslatedText Type="text/plain" xml:lang="en">6.33</TranslatedText></Decode></CodeListItem><CodeListItem CodedValue="6.67"><Decode><TranslatedText Type="text/plain" xml:lang="en">6.67</TranslatedText></Decode></CodeListItem><CodeListItem CodedValue="7"><Decode><TranslatedText Type="text/plain" xml:lang="en">7</TranslatedText></Decode></CodeListItem><CodeListItem CodedValue="7.33"><Decode><TranslatedText Type="text/plain" xml:lang="en">7.33</TranslatedText></Decode></CodeListItem><CodeListItem CodedValue="7.67"><Decode><TranslatedText Type="text/plain" xml:lang="en">7.67</TranslatedText></Decode></CodeListItem><CodeListItem CodedValue="8"><Decode><TranslatedText Type="text/plain" xml:lang="en">8</TranslatedText></Decode></CodeListItem><CodeListItem CodedValue="8.33"><Decode><TranslatedText Type="text/plain" xml:lang="en">8.33</TranslatedText></Decode></CodeListItem><CodeListItem CodedValue="8.67"><Decode><TranslatedText Type="text/plain" xml:lang="en">8.67</TranslatedText></Decode></CodeListItem><CodeListItem CodedValue="9"><Decode><TranslatedText Type="text/plain" xml:lang="en">9</TranslatedText></Decode></CodeListItem><CodeListItem CodedValue="9.33"><Decode><TranslatedText Type="text/plain" xml:lang="en">9.33</TranslatedText></Decode></CodeListItem><CodeListItem CodedValue="9.67"><Decode><TranslatedText Type="text/plain" xml:lang="en">9.67</TranslatedText></Decode></CodeListItem><CodeListItem CodedValue="10"><Decode><TranslatedText Type="text/plain" xml:lang="en">10</TranslatedText></Decode></CodeListItem><CodeListItem CodedValue="10.33"><Decode><TranslatedText Type="text/plain" xml:lang="en">10.33</TranslatedText></Decode></CodeListItem><CodeListItem CodedValue="10.67"><Decode><TranslatedText Type="text/plain" xml:lang="en">10.67</TranslatedText></Decode></CodeListItem><CodeListItem CodedValue="11"><Decode><TranslatedText Type="text/plain" xml:lang="en">11</TranslatedText></Decode></CodeListItem><CodeListItem CodedValue="11.33"><Decode><TranslatedText Type="text/plain" xml:lang="en">11.33</TranslatedText></Decode></CodeListItem><CodeListItem CodedValue="11.67"><Decode><TranslatedText Type="text/plain" xml:lang="en">11.67</TranslatedText></Decode></CodeListItem><CodeListItem CodedValue="12"><Decode><TranslatedText Type="text/plain" xml:lang="en">12</TranslatedText></Decode></CodeListItem></CodeList><CodeList OID="CL.ADASCOGSC_08_ADCRG_4.ADCRG_FTREASND" Name="ADCRG-FTREASND" DataType="text"><CodeListItem CodedValue="Participant refused"><Decode><TranslatedText Type="text/plain" xml:lang="en">Participant refused</TranslatedText></Decode></CodeListItem><CodeListItem CodedValue="Participant unable for physical reasons"><Decode><TranslatedText Type="text/plain" xml:lang="en">Participant unable for physical reasons</TranslatedText></Decode></CodeListItem><CodeListItem CodedValue="Participant unable for cognitive reasons"><Decode><TranslatedText Type="text/plain" xml:lang="en">Participant unable for cognitive reasons</TranslatedText></Decode></CodeListItem><CodeListItem CodedValue="Not done for reasons other than physical/cognitive"><Decode><TranslatedText Type="text/plain" xml:lang="en">Not done for reasons other than physical/cognitive</TranslatedText></Decode></CodeListItem></CodeList><CodeList OID="CL.ADASCOGSC_09_ADCRI_1.ADCRI_FTORRES" Name="ADCRI-FTORRES" DataType="text"><CodeListItem CodedValue="Subject never needs extra reminders of instructions"><Decode><TranslatedText Type="text/plain" xml:lang="en">Subject never needs extra reminders of instructions</TranslatedText></Decode></CodeListItem><CodeListItem CodedValue="Very mild - forgets once"><Decode><TranslatedText Type="text/plain" xml:lang="en">Very mild - forgets once</TranslatedText></Decode></CodeListItem><CodeListItem CodedValue="Mild - must be reminded 2 times"><Decode><TranslatedText Type="text/plain" xml:lang="en">Mild - must be reminded 2 times</TranslatedText></Decode></CodeListItem><CodeListItem CodedValue="Moderate - must be reminded 3 or 4 times"><Decode><TranslatedText Type="text/plain" xml:lang="en">Moderate - must be reminded 3 or 4 times</TranslatedText></Decode></CodeListItem><CodeListItem CodedValue="Moderately severe - must be reminded 5 or 6 times"><Decode><TranslatedText Type="text/plain" xml:lang="en">Moderately severe - must be reminded 5 or 6 times</TranslatedText></Decode></CodeListItem><CodeListItem CodedValue="Severe - must be reminded 7 or more times"><Decode><TranslatedText Type="text/plain" xml:lang="en">Severe - must be reminded 7 or more times</TranslatedText></Decode></CodeListItem></CodeList><CodeList OID="CL.ADASCOGSC_09_ADCRI_1.ADCRI_FTREASND" Name="ADCRI-FTREASND" DataType="text"><CodeListItem CodedValue="Participant refused"><Decode><TranslatedText Type="text/plain" xml:lang="en">Participant refused</TranslatedText></Decode></CodeListItem><CodeListItem CodedValue="Participant unable for physical reasons"><Decode><TranslatedText Type="text/plain" xml:lang="en">Participant unable for physical reasons</TranslatedText></Decode></CodeListItem><CodeListItem CodedValue="Participant unable for cognitive reasons"><Decode><TranslatedText Type="text/plain" xml:lang="en">Participant unable for cognitive reasons</TranslatedText></Decode></CodeListItem><CodeListItem CodedValue="Not done for reasons other than physical/cognitive"><Decode><TranslatedText Type="text/plain" xml:lang="en">Not done for reasons other than physical/cognitive</TranslatedText></Decode></CodeListItem></CodeList><CodeList OID="CL.ADASCOGSC_10_ADCSL_1.ADCSL_FTORRES" Name="ADCSL-FTORRES" DataType="text"><CodeListItem CodedValue="No instances where it is difficult to understand the subject"><Decode><TranslatedText Type="text/plain" xml:lang="en">No instances where it is difficult to understand the subject</TranslatedText></Decode></CodeListItem><CodeListItem CodedValue="Very mild - one instance of lack of understandability"><Decode><TranslatedText Type="text/plain" xml:lang="en">Very mild - one instance of lack of understandability</TranslatedText></Decode></CodeListItem><CodeListItem CodedValue="Mild - patient has difficulty less than 25% of the time"><Decode><TranslatedText Type="text/plain" xml:lang="en">Mild - patient has difficulty less than 25% of the time</TranslatedText></Decode></CodeListItem><CodeListItem CodedValue="Moderate - patient has difficulty 25-50% of the time"><Decode><TranslatedText Type="text/plain" xml:lang="en">Moderate - patient has difficulty 25-50% of the time</TranslatedText></Decode></CodeListItem><CodeListItem CodedValue="Moderately severe - patient has difficulty 50% of the time"><Decode><TranslatedText Type="text/plain" xml:lang="en">Moderately severe - patient has difficulty 50% of the time</TranslatedText></Decode></CodeListItem><CodeListItem CodedValue="Severe - one or two word utterance - fluent, but empty speech, mute"><Decode><TranslatedText Type="text/plain" xml:lang="en">Severe - one or two word utterance - fluent, but empty speech, mute</TranslatedText></Decode></CodeListItem></CodeList><CodeList OID="CL.ADASCOGSC_11_ADCDIF_1.ADCDIF_FTORRES" Name="ADCDIF-FTORRES" DataType="text"><CodeListItem CodedValue="No evidence of word finding difficulty in spontaneous speech"><Decode><TranslatedText Type="text/plain" xml:lang="en">No evidence of word finding difficulty in spontaneous speech</TranslatedText></Decode></CodeListItem><CodeListItem CodedValue="Very mild - 1 or 2 instances, not clinically significant"><Decode><TranslatedText Type="text/plain" xml:lang="en">Very mild - 1 or 2 instances, not clinically significant</TranslatedText></Decode></CodeListItem><CodeListItem CodedValue="Mild - noticeable circumlocution or synonym substitution"><Decode><TranslatedText Type="text/plain" xml:lang="en">Mild - noticeable circumlocution or synonym substitution</TranslatedText></Decode></CodeListItem><CodeListItem CodedValue="Moderate - loss of words without compensation on occasion"><Decode><TranslatedText Type="text/plain" xml:lang="en">Moderate - loss of words without compensation on occasion</TranslatedText></Decode></CodeListItem><CodeListItem CodedValue="Moderately severe - frequent loss of words without compensation"><Decode><TranslatedText Type="text/plain" xml:lang="en">Moderately severe - frequent loss of words without compensation</TranslatedText></Decode></CodeListItem><CodeListItem CodedValue="Severe - nearly total loss of content of words, speech sounds empty, 1-2 word utterances"><Decode><TranslatedText Type="text/plain" xml:lang="en">Severe - nearly total loss of content of words, speech sounds empty, 1-2 word utterances</TranslatedText></Decode></CodeListItem></CodeList><CodeList OID="CL.ADASCOGSC_11_ADCDIF_1.ADCDIF_FTREASND" Name="ADCDIF-FTREASND" DataType="text"><CodeListItem CodedValue="Participant refused"><Decode><TranslatedText Type="text/plain" xml:lang="en">Participant refused</TranslatedText></Decode></CodeListItem><CodeListItem CodedValue="Participant unable for physical reasons"><Decode><TranslatedText Type="text/plain" xml:lang="en">Participant unable for physical reasons</TranslatedText></Decode></CodeListItem><CodeListItem CodedValue="Participant unable for cognitive reasons"><Decode><TranslatedText Type="text/plain" xml:lang="en">Participant unable for cognitive reasons</TranslatedText></Decode></CodeListItem><CodeListItem CodedValue="Not done for reasons other than physical/cognitive"><Decode><TranslatedText Type="text/plain" xml:lang="en">Not done for reasons other than physical/cognitive</TranslatedText></Decode></CodeListItem></CodeList><CodeList OID="CL.ADASCOGSC_12_ADCCMP_1.ADCCMP_FTORRES" Name="ADCCMP-FTORRES" DataType="text"><CodeListItem CodedValue="No evidence of poor comprehension"><Decode><TranslatedText Type="text/plain" xml:lang="en">No evidence of poor comprehension</TranslatedText></Decode></CodeListItem><CodeListItem CodedValue="Very mild - 1 or 2 instances of misunderstanding"><Decode><TranslatedText Type="text/plain" xml:lang="en">Very mild - 1 or 2 instances of misunderstanding</TranslatedText></Decode></CodeListItem><CodeListItem CodedValue="Mild - 3-5 instances of misunderstanding"><Decode><TranslatedText Type="text/plain" xml:lang="en">Mild - 3-5 instances of misunderstanding</TranslatedText></Decode></CodeListItem><CodeListItem CodedValue="Moderate - requires several repetitions and rephrasings"><Decode><TranslatedText Type="text/plain" xml:lang="en">Moderate - requires several repetitions and rephrasings</TranslatedText></Decode></CodeListItem><CodeListItem CodedValue="Moderately severe - patient only occasionally responds correctly (i.e., yes/no questions)"><Decode><TranslatedText Type="text/plain" xml:lang="en">Moderately severe - patient only occasionally responds correctly (i.e., yes/no questions)</TranslatedText></Decode></CodeListItem><CodeListItem CodedValue="Severe - patient rarely responds to questions appropriately, not due to poverty of speech"><Decode><TranslatedText Type="text/plain" xml:lang="en">Severe - patient rarely responds to questions appropriately, not due to poverty of speech</TranslatedText></Decode></CodeListItem></CodeList><CodeList OID="CL.ADASCOGSC_13_ADCCON_1.ADCCON_FTORRES" Name="ADCCON-FTORRES" DataType="text"><CodeListItem CodedValue="No evidence of poor concentration or distractibility"><Decode><TranslatedText Type="text/plain" xml:lang="en">No evidence of poor concentration or distractibility</TranslatedText></Decode></CodeListItem><CodeListItem CodedValue="Very mild - one instance of poor concentration"><Decode><TranslatedText Type="text/plain" xml:lang="en">Very mild - one instance of poor concentration</TranslatedText></Decode></CodeListItem><CodeListItem CodedValue="Mild - 2-3 instances of poor concentration/distractibility, signs of restlessness and inattentiveness"><Decode><TranslatedText Type="text/plain" xml:lang="en">Mild - 2-3 instances of poor concentration/distractibility, signs of restlessness and inattentiveness</TranslatedText></Decode></CodeListItem><CodeListItem CodedValue="Moderate - 4-5 instances during interview"><Decode><TranslatedText Type="text/plain" xml:lang="en">Moderate - 4-5 instances during interview</TranslatedText></Decode></CodeListItem><CodeListItem CodedValue="Moderately severe - poor concentration/distractibility throughout much of interview"><Decode><TranslatedText Type="text/plain" xml:lang="en">Moderately severe - poor concentration/distractibility throughout much of interview</TranslatedText></Decode></CodeListItem><CodeListItem CodedValue="Severe - extreme difficulty in concentration and extremely distractible, unable to complete tasks"><Decode><TranslatedText Type="text/plain" xml:lang="en">Severe - extreme difficulty in concentration and extremely distractible, unable to complete tasks</TranslatedText></Decode></CodeListItem></CodeList><CodeList OID="CL.ADASCOGSC_13_ADCCON_1.ADCCON_FTREASND" Name="ADCCON-FTREASND" DataType="text"><CodeListItem CodedValue="Participant refused"><Decode><TranslatedText Type="text/plain" xml:lang="en">Participant refused</TranslatedText></Decode></CodeListItem><CodeListItem CodedValue="Participant unable for physical reasons"><Decode><TranslatedText Type="text/plain" xml:lang="en">Participant unable for physical reasons</TranslatedText></Decode></CodeListItem><CodeListItem CodedValue="Participant unable for cognitive reasons"><Decode><TranslatedText Type="text/plain" xml:lang="en">Participant unable for cognitive reasons</TranslatedText></Decode></CodeListItem><CodeListItem CodedValue="Not done for reasons other than physical/cognitive"><Decode><TranslatedText Type="text/plain" xml:lang="en">Not done for reasons other than physical/cognitive</TranslatedText></Decode></CodeListItem></CodeList><CodeList OID="CL.ADASCOGSC_14_ADCNC01_1.ADCNC01_FTREASND" Name="ADCNC01-FTREASND" DataType="text"><CodeListItem CodedValue="Participant refused"><Decode><TranslatedText Type="text/plain" xml:lang="en">Participant refused</TranslatedText></Decode></CodeListItem><CodeListItem CodedValue="Participant unable for physical reasons"><Decode><TranslatedText Type="text/plain" xml:lang="en">Participant unable for physical reasons</TranslatedText></Decode></CodeListItem><CodeListItem CodedValue="Participant unable for cognitive reasons"><Decode><TranslatedText Type="text/plain" xml:lang="en">Participant unable for cognitive reasons</TranslatedText></Decode></CodeListItem><CodeListItem CodedValue="Not done for reasons other than physical/cognitive"><Decode><TranslatedText Type="text/plain" xml:lang="en">Not done for reasons other than physical/cognitive</TranslatedText></Decode></CodeListItem></CodeList><CodeList OID="CL.ADASCOGSC_14_ADCNC02_2.ADCNC02_FTREASND" Name="ADCNC02-FTREASND" DataType="text"><CodeListItem CodedValue="Participant refused"><Decode><TranslatedText Type="text/plain" xml:lang="en">Participant refused</TranslatedText></Decode></CodeListItem><CodeListItem CodedValue="Participant unable for physical reasons"><Decode><TranslatedText Type="text/plain" xml:lang="en">Participant unable for physical reasons</TranslatedText></Decode></CodeListItem><CodeListItem CodedValue="Participant unable for cognitive reasons"><Decode><TranslatedText Type="text/plain" xml:lang="en">Participant unable for cognitive reasons</TranslatedText></Decode></CodeListItem><CodeListItem CodedValue="Not done for reasons other than physical/cognitive"><Decode><TranslatedText Type="text/plain" xml:lang="en">Not done for reasons other than physical/cognitive</TranslatedText></Decode></CodeListItem></CodeList><CodeList OID="CL.ADASCOGSC_14_ADCNC03_3.ADCNC03_FTREASND" Name="ADCNC03-FTREASND" DataType="text"><CodeListItem CodedValue="Participant refused"><Decode><TranslatedText Type="text/plain" xml:lang="en">Participant refused</TranslatedText></Decode></CodeListItem><CodeListItem CodedValue="Participant unable for physical reasons"><Decode><TranslatedText Type="text/plain" xml:lang="en">Participant unable for physical reasons</TranslatedText></Decode></CodeListItem><CodeListItem CodedValue="Participant unable for cognitive reasons"><Decode><TranslatedText Type="text/plain" xml:lang="en">Participant unable for cognitive reasons</TranslatedText></Decode></CodeListItem><CodeListItem CodedValue="Not done for reasons other than physical/cognitive"><Decode><TranslatedText Type="text/plain" xml:lang="en">Not done for reasons other than physical/cognitive</TranslatedText></Decode></CodeListItem></CodeList><CodeList OID="CL.ADASCOGSC_14_ADCNC_4.ADCNC_FTREASND" Name="ADCNC-FTREASND" DataType="text"><CodeListItem CodedValue="Participant refused"><Decode><TranslatedText Type="text/plain" xml:lang="en">Participant refused</TranslatedText></Decode></CodeListItem><CodeListItem CodedValue="Participant unable for physical reasons"><Decode><TranslatedText Type="text/plain" xml:lang="en">Participant unable for physical reasons</TranslatedText></Decode></CodeListItem><CodeListItem CodedValue="Participant unable for cognitive reasons"><Decode><TranslatedText Type="text/plain" xml:lang="en">Participant unable for cognitive reasons</TranslatedText></Decode></CodeListItem><CodeListItem CodedValue="Not done for reasons other than physical/cognitive"><Decode><TranslatedText Type="text/plain" xml:lang="en">Not done for reasons other than physical/cognitive</TranslatedText></Decode></CodeListItem></CodeList><CodeList OID="CL.ADASCOGSC_15_ADCMZ01_1.ADCMZ01_FTORRES" Name="ADCMZ01-FTORRES" DataType="integer"><CodeListItem CodedValue="0"><Decode><TranslatedText Type="text/plain" xml:lang="en">0</TranslatedText></Decode></CodeListItem><CodeListItem CodedValue="1"><Decode><TranslatedText Type="text/plain" xml:lang="en">1</TranslatedText></Decode></CodeListItem><CodeListItem CodedValue="2"><Decode><TranslatedText Type="text/plain" xml:lang="en">2</TranslatedText></Decode></CodeListItem></CodeList><CodeList OID="CL.ADASCOGSC_15_ADCMZ01_1.ADCMZ01_FTREASND" Name="ADCMZ01-FTREASND" DataType="text"><CodeListItem CodedValue="Participant refused"><Decode><TranslatedText Type="text/plain" xml:lang="en">Participant refused</TranslatedText></Decode></CodeListItem><CodeListItem CodedValue="Participant unable for physical reasons"><Decode><TranslatedText Type="text/plain" xml:lang="en">Participant unable for physical reasons</TranslatedText></Decode></CodeListItem><CodeListItem CodedValue="Participant unable for cognitive reasons"><Decode><TranslatedText Type="text/plain" xml:lang="en">Participant unable for cognitive reasons</TranslatedText></Decode></CodeListItem><CodeListItem CodedValue="Not done for reasons other than physical/cognitive"><Decode><TranslatedText Type="text/plain" xml:lang="en">Not done for reasons other than physical/cognitive</TranslatedText></Decode></CodeListItem></CodeList><CodeList OID="CL.ADASCOGSC_15_ADCMZ02_2.ADCMZ02_FTREASND" Name="ADCMZ02-FTREASND" DataType="text"><CodeListItem CodedValue="Participant refused"><Decode><TranslatedText Type="text/plain" xml:lang="en">Participant refused</TranslatedText></Decode></CodeListItem><CodeListItem CodedValue="Participant unable for physical reasons"><Decode><TranslatedText Type="text/plain" xml:lang="en">Participant unable for physical reasons</TranslatedText></Decode></CodeListItem><CodeListItem CodedValue="Participant unable for cognitive reasons"><Decode><TranslatedText Type="text/plain" xml:lang="en">Participant unable for cognitive reasons</TranslatedText></Decode></CodeListItem><CodeListItem CodedValue="Not done for reasons other than physical/cognitive"><Decode><TranslatedText Type="text/plain" xml:lang="en">Not done for reasons other than physical/cognitive</TranslatedText></Decode></CodeListItem></CodeList><CodeList OID="CL.ADASCOGSC_15_ADCMZ_3.ADCMZ_FTREASND" Name="ADCMZ-FTREASND" DataType="text"><CodeListItem CodedValue="Participant refused"><Decode><TranslatedText Type="text/plain" xml:lang="en">Participant refused</TranslatedText></Decode></CodeListItem><CodeListItem CodedValue="Participant unable for physical reasons"><Decode><TranslatedText Type="text/plain" xml:lang="en">Participant unable for physical reasons</TranslatedText></Decode></CodeListItem><CodeListItem CodedValue="Participant unable for cognitive reasons"><Decode><TranslatedText Type="text/plain" xml:lang="en">Participant unable for cognitive reasons</TranslatedText></Decode></CodeListItem><CodeListItem CodedValue="Not done for reasons other than physical/cognitive"><Decode><TranslatedText Type="text/plain" xml:lang="en">Not done for reasons other than physical/cognitive</TranslatedText></Decode></CodeListItem></CodeList></MetaDataVersion></Study></ODM>