{"FileOID": "ODM.CDASH.POC", "Granularity": "Metadata", "AsOfDateTime": "2025-08-12T20:46:17.780253+00:00", "CreationDateTime": "2025-08-12T20:46:17.780253+00:00", "ODMVersion": "2.0", "FileType": "Snapshot", "Originator": "Lex Jansen", "SourceSystem": "odmlib", "SourceSystemVersion": "0.1", "Study": [{"OID": "ODM.CDASH.STUDY", "StudyName": "CDISC360i CDASH POC Study", "Description": {"TranslatedText": [{"_content": "CDISC360i CDASH POC Study", "Type": "text/plain", "lang": "en"}]}, "ProtocolName": "CDISC360i CDASH POC Study protocol", "MetaDataVersion": [{"OID": "ODM.CDASH.STUDY.MDV", "Name": "CDISC360i CDASH POC Study Metadata Version", "Description": {"TranslatedText": [{"_content": "CDISC360i CDASH ODM 2.0 metadata version", "Type": "text/plain", "lang": "en"}]}, "ItemGroupDef": [{"OID": "IG_FORM.ADASCOGSC1", "Name": "ADAS-COG Summary Score", "Repeating": "No", "Type": "Form", "Description": {"TranslatedText": [{"_content": "ADAS-COG Summary Score", "Type": "text/plain", "lang": "en"}]}, "ItemGroupRef": [{"ItemGroupOID": "IG.ADASCOG_01_1", "OrderNumber": 1, "Mandatory": "Yes"}, {"ItemGroupOID": "IG.ADASCOGSC_01_2", "OrderNumber": 2, "Mandatory": "Yes"}, {"ItemGroupOID": "IG.ADASCOGSC_02_3", "OrderNumber": 3, "Mandatory": "Yes"}, {"ItemGroupOID": "IG.ADASCOGSC_03_4", "OrderNumber": 4, "Mandatory": "Yes"}, {"ItemGroupOID": "IG.ADASCOGSC_04_5", "OrderNumber": 5, "Mandatory": "Yes"}, {"ItemGroupOID": "IG.ADASCOGSC_05_6", "OrderNumber": 6, "Mandatory": "Yes"}, {"ItemGroupOID": "IG.ADASCOGSC_06_7", "OrderNumber": 7, "Mandatory": "Yes"}, {"ItemGroupOID": "IG.ADASCOGSC_07_8", "OrderNumber": 8, "Mandatory": "Yes"}, {"ItemGroupOID": "IG.ADASCOGSC_08_9", "OrderNumber": 9, "Mandatory": "Yes"}, {"ItemGroupOID": "IG.ADASCOGSC_09_10", "OrderNumber": 10, "Mandatory": "Yes"}, {"ItemGroupOID": "IG.ADASCOGSC_10_11", "OrderNumber": 11, "Mandatory": "Yes"}, {"ItemGroupOID": "IG.ADASCOGSC_11_12", "OrderNumber": 12, "Mandatory": "Yes"}, {"ItemGroupOID": "IG.ADASCOGSC_12_13", "OrderNumber": 13, "Mandatory": "Yes"}, {"ItemGroupOID": "IG.ADASCOGSC_13_14", "OrderNumber": 14, "Mandatory": "Yes"}, {"ItemGroupOID": "IG.ADASCOGSC_14_15", "OrderNumber": 15, "Mandatory": "Yes"}, {"ItemGroupOID": "IG.ADASCOGSC_15_16", "OrderNumber": 16, "Mandatory": "Yes"}], "Alias": [{"Context": "formAnnotation", "Name": "DOMAIN = FT; FTCAT = ADAS-COG"}]}, {"OID": "IG.ADASCOG_01_1", "Name": "ADAS-COG - Lead Question", "Repeating": "No", "Type": "Section", "Description": {"TranslatedText": [{"_content": "ADAS-COG - Lead Question", "Type": "text/plain", "lang": "en"}]}, "ItemGroupRef": [{"ItemGroupOID": "IG.ADASCOG_01_1_ADASCOG_1", "OrderNumber": 1, "Mandatory": "Yes"}], "Alias": []}, {"OID": "IG.ADASCOGSC_01_2", "Name": "ADAS-COG - Word Recall", "Repeating": "No", "Type": "Section", "Description": {"TranslatedText": [{"_content": "ADAS-COG - Word Recall", "Type": "text/plain", "lang": "en"}]}, "ItemGroupRef": [{"ItemGroupOID": "IG.ADASCOGSC_01_2_ADCRLT01_1", "OrderNumber": 1, "Mandatory": "Yes"}, {"ItemGroupOID": "IG.ADASCOGSC_01_2_ADCRLT02_2", "OrderNumber": 2, "Mandatory": "Yes"}, {"ItemGroupOID": "IG.ADASCOGSC_01_2_ADCRLT03_3", "OrderNumber": 3, "Mandatory": "Yes"}, {"ItemGroupOID": "IG.ADASCOGSC_01_2_ADCRL_4", "OrderNumber": 4, "Mandatory": "Yes"}], "Alias": []}, {"OID": "IG.ADASCOGSC_02_3", "Name": "ADAS-COG - Naming Objects and Fingers Summary Score", "Repeating": "No", "Type": "Section", "Description": {"TranslatedText": [{"_content": "ADAS-COG - Naming Objects and Fingers Summary Score", "Type": "text/plain", "lang": "en"}]}, "ItemGroupRef": [{"ItemGroupOID": "IG.ADASCOGSC_02_3_ADCOF_1", "OrderNumber": 1, "Mandatory": "Yes"}], "Alias": []}, {"OID": "IG.ADASCOGSC_03_4", "Name": "ADAS-COG - Commands Summary Score", "Repeating": "No", "Type": "Section", "Description": {"TranslatedText": [{"_content": "ADAS-COG - Commands Summary Score", "Type": "text/plain", "lang": "en"}]}, "ItemGroupRef": [{"ItemGroupOID": "IG.ADASCOGSC_03_4_ADCCMD_1", "OrderNumber": 1, "Mandatory": "Yes"}], "Alias": []}, {"OID": "IG.ADASCOGSC_04_5", "Name": "ADAS-COG - Delayed Word Recall Summary Score", "Repeating": "No", "Type": "Section", "Description": {"TranslatedText": [{"_content": "ADAS-COG - Delayed Word Recall Summary Score", "Type": "text/plain", "lang": "en"}]}, "ItemGroupRef": [{"ItemGroupOID": "IG.ADASCOGSC_04_5_ADCDRL_1", "OrderNumber": 1, "Mandatory": "Yes"}], "Alias": []}, {"OID": "IG.ADASCOGSC_05_6", "Name": "ADAS-COG - Constructional Praxis Summary Score", "Repeating": "No", "Type": "Section", "Description": {"TranslatedText": [{"_content": "ADAS-COG - Constructional Praxis Summary Score", "Type": "text/plain", "lang": "en"}]}, "ItemGroupRef": [{"ItemGroupOID": "IG.ADASCOGSC_05_6_ADCCP_1", "OrderNumber": 1, "Mandatory": "Yes"}], "Alias": []}, {"OID": "IG.ADASCOGSC_06_7", "Name": "ADAS-COG - Ideational Praxis Summary Score", "Repeating": "No", "Type": "Section", "Description": {"TranslatedText": [{"_content": "ADAS-COG - Ideational Praxis Summary Score", "Type": "text/plain", "lang": "en"}]}, "ItemGroupRef": [{"ItemGroupOID": "IG.ADASCOGSC_06_7_ADCIP_1", "OrderNumber": 1, "Mandatory": "Yes"}], "Alias": []}, {"OID": "IG.ADASCOGSC_07_8", "Name": "ADAS-COG - Orientation Summary Score", "Repeating": "No", "Type": "Section", "Description": {"TranslatedText": [{"_content": "ADAS-COG - Orientation Summary Score", "Type": "text/plain", "lang": "en"}]}, "ItemGroupRef": [{"ItemGroupOID": "IG.ADASCOGSC_07_8_ADCOR_1", "OrderNumber": 1, "Mandatory": "Yes"}], "Alias": []}, {"OID": "IG.ADASCOGSC_08_9", "Name": "ADAS-COG - Word Recognition", "Repeating": "No", "Type": "Section", "Description": {"TranslatedText": [{"_content": "ADAS-COG - Word Recognition", "Type": "text/plain", "lang": "en"}]}, "ItemGroupRef": [{"ItemGroupOID": "IG.ADASCOGSC_08_9_ADCRGT01_1", "OrderNumber": 1, "Mandatory": "Yes"}, {"ItemGroupOID": "IG.ADASCOGSC_08_9_ADCRGT02_2", "OrderNumber": 2, "Mandatory": "Yes"}, {"ItemGroupOID": "IG.ADASCOGSC_08_9_ADCRGT03_3", "OrderNumber": 3, "Mandatory": "Yes"}, {"ItemGroupOID": "IG.ADASCOGSC_08_9_ADCRG_4", "OrderNumber": 4, "Mandatory": "Yes"}], "Alias": []}, {"OID": "IG.ADASCOGSC_09_10", "Name": "ADAS-COG - Remembering Test Instructions", "Repeating": "No", "Type": "Section", "Description": {"TranslatedText": [{"_content": "ADAS-COG - Remembering Test Instructions", "Type": "text/plain", "lang": "en"}]}, "ItemGroupRef": [{"ItemGroupOID": "IG.ADASCOGSC_09_10_ADCRI_1", "OrderNumber": 1, "Mandatory": "Yes"}], "Alias": []}, {"OID": "IG.ADASCOGSC_10_11", "Name": "ADAS-COG - Spoken Language Ability", "Repeating": "No", "Type": "Section", "Description": {"TranslatedText": [{"_content": "ADAS-COG - Spoken Language Ability", "Type": "text/plain", "lang": "en"}]}, "ItemGroupRef": [{"ItemGroupOID": "IG.ADASCOGSC_10_11_ADCSL_1", "OrderNumber": 1, "Mandatory": "Yes"}], "Alias": []}, {"OID": "IG.ADASCOGSC_11_12", "Name": "ADAS-COG - Word Difficulty in Spontaneous Speech", "Repeating": "No", "Type": "Section", "Description": {"TranslatedText": [{"_content": "ADAS-COG - Word Difficulty in Spontaneous Speech", "Type": "text/plain", "lang": "en"}]}, "ItemGroupRef": [{"ItemGroupOID": "IG.ADASCOGSC_11_12_ADCDIF_1", "OrderNumber": 1, "Mandatory": "Yes"}], "Alias": []}, {"OID": "IG.ADASCOGSC_12_13", "Name": "ADAS-COG - Comprehension", "Repeating": "No", "Type": "Section", "Description": {"TranslatedText": [{"_content": "ADAS-COG - Comprehension", "Type": "text/plain", "lang": "en"}]}, "ItemGroupRef": [{"ItemGroupOID": "IG.ADASCOGSC_12_13_ADCCMP_1", "OrderNumber": 1, "Mandatory": "Yes"}], "Alias": []}, {"OID": "IG.ADASCOGSC_13_14", "Name": "ADAS-COG - Concentration/Distractibility", "Repeating": "No", "Type": "Section", "Description": {"TranslatedText": [{"_content": "ADAS-COG - Concentration/Distractibility", "Type": "text/plain", "lang": "en"}]}, "ItemGroupRef": [{"ItemGroupOID": "IG.ADASCOGSC_13_14_ADCCON_1", "OrderNumber": 1, "Mandatory": "Yes"}], "Alias": []}, {"OID": "IG.ADASCOGSC_14_15", "Name": "ADAS-COG - Number Cancellation", "Repeating": "No", "Type": "Section", "Description": {"TranslatedText": [{"_content": "ADAS-COG - Number Cancellation", "Type": "text/plain", "lang": "en"}]}, "ItemGroupRef": [{"ItemGroupOID": "IG.ADASCOGSC_14_15_ADCNC01_1", "OrderNumber": 1, "Mandatory": "Yes"}, {"ItemGroupOID": "IG.ADASCOGSC_14_15_ADCNC02_2", "OrderNumber": 2, "Mandatory": "Yes"}, {"ItemGroupOID": "IG.ADASCOGSC_14_15_ADCNC03_3", "OrderNumber": 3, "Mandatory": "Yes"}, {"ItemGroupOID": "IG.ADASCOGSC_14_15_ADCNC_4", "OrderNumber": 4, "Mandatory": "Yes"}], "Alias": []}, {"OID": "IG.ADASCOGSC_15_16", "Name": "ADAS-COG - Executive Function Maze", "Repeating": "No", "Type": "Section", "Description": {"TranslatedText": [{"_content": "ADAS-COG - Executive Function Maze", "Type": "text/plain", "lang": "en"}]}, "ItemGroupRef": [{"ItemGroupOID": "IG.ADASCOGSC_15_16_ADCMZ01_1", "OrderNumber": 1, "Mandatory": "Yes"}, {"ItemGroupOID": "IG.ADASCOGSC_15_16_ADCMZ02_2", "OrderNumber": 2, "Mandatory": "Yes"}, {"ItemGroupOID": "IG.ADASCOGSC_15_16_ADCMZ_3", "OrderNumber": 3, "Mandatory": "Yes"}], "Alias": []}, {"OID": "IG.ADASCOG_01_1_ADASCOG_1", "Name": "Alzheimer's Disease Assessment Scale-Cognitive CDISC Version Functional Test", "Repeating": "No", "Type": "Concept", "Description": {"TranslatedText": [{"_content": "Alzheimer's Disease Assessment Scale-Cognitive CDISC Version Functional Test", "Type": "text/plain", "lang": "en"}]}, "ItemRef": [{"ItemOID": "IT.ADASCOG_01_1_ADASCOG_1.ADASCOG_FTPERF", "OrderNumber": 2, "Mandatory": "No"}, {"ItemOID": "IT.ADASCOG_01_1_ADASCOG_1.ADASCOG_FTDAT", "OrderNumber": 3, "Mandatory": "Yes"}, {"ItemOID": "IT.ADASCOG_01_1_ADASCOG_1.ADASCOG_FTREASND", "OrderNumber": 4, "Mandatory": "No"}], "Coding": [{"System": "/mdr/bc/biomedicalconcepts/C100762", "Code": "C100762", "SystemName": "CDISC Biomedical Concept"}]}, {"OID": "IG.ADASCOGSC_01_2_ADCRLT01_1", "Name": "CDISC ADAS-Cog - Word Recall Trial 1 Subscore", "Repeating": "No", "Type": "Concept", "Description": {"TranslatedText": [{"_content": "CDISC ADAS-Cog - Word Recall Trial 1 Subscore", "Type": "text/plain", "lang": "en"}]}, "ItemRef": [{"ItemOID": "IT.ADASCOGSC_01_2_ADCRLT01_1.ADCRLT01_FTORRES", "OrderNumber": 2, "Mandatory": "Yes"}, {"ItemOID": "IT.ADASCOGSC_01_2_ADCRLT01_1.ADCRLT01_FTREASND", "OrderNumber": 3, "Mandatory": "No"}], "Coding": [{"System": "/mdr/bc/biomedicalconcepts/C100178", "Code": "C100178", "SystemName": "CDISC Biomedical Concept"}, {"System": "/mdr/specializations/sdtm/datasetspecializations/ADCRLT01", "Code": "ADCRLT01", "SystemName": "CDISC SDTM Dataset Specialization"}]}, {"OID": "IG.ADASCOGSC_01_2_ADCRLT02_2", "Name": "CDISC ADAS-Cog - Word Recall Trial 2 Subscore", "Repeating": "No", "Type": "Concept", "Description": {"TranslatedText": [{"_content": "CDISC ADAS-Cog - Word Recall Trial 2 Subscore", "Type": "text/plain", "lang": "en"}]}, "ItemRef": [{"ItemOID": "IT.ADASCOGSC_01_2_ADCRLT02_2.ADCRLT02_FTORRES", "OrderNumber": 2, "Mandatory": "Yes"}, {"ItemOID": "IT.ADASCOGSC_01_2_ADCRLT02_2.ADCRLT02_FTREASND", "OrderNumber": 3, "Mandatory": "No"}], "Coding": [{"System": "/mdr/bc/biomedicalconcepts/C100179", "Code": "C100179", "SystemName": "CDISC Biomedical Concept"}, {"System": "/mdr/specializations/sdtm/datasetspecializations/ADCRLT02", "Code": "ADCRLT02", "SystemName": "CDISC SDTM Dataset Specialization"}]}, {"OID": "IG.ADASCOGSC_01_2_ADCRLT03_3", "Name": "CDISC ADAS-Cog - Word Recall Trial 3 Subscore", "Repeating": "No", "Type": "Concept", "Description": {"TranslatedText": [{"_content": "CDISC ADAS-Cog - Word Recall Trial 3 Subscore", "Type": "text/plain", "lang": "en"}]}, "ItemRef": [{"ItemOID": "IT.ADASCOGSC_01_2_ADCRLT03_3.ADCRLT03_FTORRES", "OrderNumber": 2, "Mandatory": "Yes"}, {"ItemOID": "IT.ADASCOGSC_01_2_ADCRLT03_3.ADCRLT03_FTREASND", "OrderNumber": 3, "Mandatory": "No"}], "Coding": [{"System": "/mdr/bc/biomedicalconcepts/C100180", "Code": "C100180", "SystemName": "CDISC Biomedical Concept"}, {"System": "/mdr/specializations/sdtm/datasetspecializations/ADCRLT03", "Code": "ADCRLT03", "SystemName": "CDISC SDTM Dataset Specialization"}]}, {"OID": "IG.ADASCOGSC_01_2_ADCRL_4", "Name": "CDISC ADAS-Cog - Word Recall Average Score", "Repeating": "No", "Type": "Concept", "Description": {"TranslatedText": [{"_content": "CDISC ADAS-Cog - Word Recall Average Score", "Type": "text/plain", "lang": "en"}]}, "ItemRef": [{"ItemOID": "IT.ADASCOGSC_01_2_ADCRL_4.ADCRL_FTORRES", "OrderNumber": 2, "Mandatory": "Yes"}, {"ItemOID": "IT.ADASCOGSC_01_2_ADCRL_4.ADCRL_FTREASND", "OrderNumber": 3, "Mandatory": "No"}], "Coding": [{"System": "/mdr/bc/biomedicalconcepts/C100177", "Code": "C100177", "SystemName": "CDISC Biomedical Concept"}, {"System": "/mdr/specializations/sdtm/datasetspecializations/ADCRL", "Code": "ADCRL", "SystemName": "CDISC SDTM Dataset Specialization"}]}, {"OID": "IG.ADASCOGSC_02_3_ADCOF_1", "Name": "CDISC ADAS-Cog - Naming Objects and Fingers Summary Score", "Repeating": "No", "Type": "Concept", "Description": {"TranslatedText": [{"_content": "CDISC ADAS-Cog - Naming Objects and Fingers Summary Score", "Type": "text/plain", "lang": "en"}]}, "ItemRef": [{"ItemOID": "IT.ADASCOGSC_02_3_ADCOF_1.ADCOF_FTORRES", "OrderNumber": 2, "Mandatory": "Yes"}, {"ItemOID": "IT.ADASCOGSC_02_3_ADCOF_1.ADCOF_FTREASND", "OrderNumber": 3, "Mandatory": "No"}], "Coding": [{"System": "/mdr/bc/biomedicalconcepts/C100191", "Code": "C100191", "SystemName": "CDISC Biomedical Concept"}, {"System": "/mdr/specializations/sdtm/datasetspecializations/ADCOF", "Code": "ADCOF", "SystemName": "CDISC SDTM Dataset Specialization"}]}, {"OID": "IG.ADASCOGSC_03_4_ADCCMD_1", "Name": "CDISC ADAS-Cog - Commands Summary Score", "Repeating": "No", "Type": "Concept", "Description": {"TranslatedText": [{"_content": "CDISC ADAS-Cog - Commands Summary Score", "Type": "text/plain", "lang": "en"}]}, "ItemRef": [{"ItemOID": "IT.ADASCOGSC_03_4_ADCCMD_1.ADCCMD_FTORRES", "OrderNumber": 2, "Mandatory": "Yes"}, {"ItemOID": "IT.ADASCOGSC_03_4_ADCCMD_1.ADCCMD_FTREASND", "OrderNumber": 3, "Mandatory": "No"}], "Coding": [{"System": "/mdr/bc/biomedicalconcepts/C100209", "Code": "C100209", "SystemName": "CDISC Biomedical Concept"}, {"System": "/mdr/specializations/sdtm/datasetspecializations/ADCCMD", "Code": "ADCCMD", "SystemName": "CDISC SDTM Dataset Specialization"}]}, {"OID": "IG.ADASCOGSC_04_5_ADCDRL_1", "Name": "CDISC ADAS-Cog - Delayed Word Recall Summary Score", "Repeating": "No", "Type": "Concept", "Description": {"TranslatedText": [{"_content": "CDISC ADAS-Cog - Delayed Word Recall Summary Score", "Type": "text/plain", "lang": "en"}]}, "ItemRef": [{"ItemOID": "IT.ADASCOGSC_04_5_ADCDRL_1.ADCDRL_FTORRES", "OrderNumber": 2, "Mandatory": "Yes"}, {"ItemOID": "IT.ADASCOGSC_04_5_ADCDRL_1.ADCDRL_FTREASND", "OrderNumber": 3, "Mandatory": "No"}], "Coding": [{"System": "/mdr/bc/biomedicalconcepts/C100215", "Code": "C100215", "SystemName": "CDISC Biomedical Concept"}, {"System": "/mdr/specializations/sdtm/datasetspecializations/ADCDRL", "Code": "ADCDRL", "SystemName": "CDISC SDTM Dataset Specialization"}]}, {"OID": "IG.ADASCOGSC_05_6_ADCCP_1", "Name": "CDISC ADAS-Cog - Constructional Praxis Summary Score", "Repeating": "No", "Type": "Concept", "Description": {"TranslatedText": [{"_content": "CDISC ADAS-Cog - Constructional Praxis Summary Score", "Type": "text/plain", "lang": "en"}]}, "ItemRef": [{"ItemOID": "IT.ADASCOGSC_05_6_ADCCP_1.ADCCP_FTORRES", "OrderNumber": 2, "Mandatory": "Yes"}, {"ItemOID": "IT.ADASCOGSC_05_6_ADCCP_1.ADCCP_FTREASND", "OrderNumber": 3, "Mandatory": "No"}], "Coding": [{"System": "/mdr/bc/biomedicalconcepts/C100226", "Code": "C100226", "SystemName": "CDISC Biomedical Concept"}, {"System": "/mdr/specializations/sdtm/datasetspecializations/ADCCP", "Code": "ADCCP", "SystemName": "CDISC SDTM Dataset Specialization"}]}, {"OID": "IG.ADASCOGSC_06_7_ADCIP_1", "Name": "CDISC ADAS-Cog - Ideational Praxis Summary Score", "Repeating": "No", "Type": "Concept", "Description": {"TranslatedText": [{"_content": "CDISC ADAS-Cog - Ideational Praxis Summary Score", "Type": "text/plain", "lang": "en"}]}, "ItemRef": [{"ItemOID": "IT.ADASCOGSC_06_7_ADCIP_1.ADCIP_FTORRES", "OrderNumber": 2, "Mandatory": "Yes"}, {"ItemOID": "IT.ADASCOGSC_06_7_ADCIP_1.ADCIP_FTREASND", "OrderNumber": 3, "Mandatory": "No"}], "Coding": [{"System": "/mdr/bc/biomedicalconcepts/C100232", "Code": "C100232", "SystemName": "CDISC Biomedical Concept"}, {"System": "/mdr/specializations/sdtm/datasetspecializations/ADCIP", "Code": "ADCIP", "SystemName": "CDISC SDTM Dataset Specialization"}]}, {"OID": "IG.ADASCOGSC_07_8_ADCOR_1", "Name": "CDISC ADAS-Cog - Orientation Summary Score", "Repeating": "No", "Type": "Concept", "Description": {"TranslatedText": [{"_content": "CDISC ADAS-Cog - Orientation Summary Score", "Type": "text/plain", "lang": "en"}]}, "ItemRef": [{"ItemOID": "IT.ADASCOGSC_07_8_ADCOR_1.ADCOR_FTORRES", "OrderNumber": 2, "Mandatory": "Yes"}, {"ItemOID": "IT.ADASCOGSC_07_8_ADCOR_1.ADCOR_FTREASND", "OrderNumber": 3, "Mandatory": "No"}], "Coding": [{"System": "/mdr/bc/biomedicalconcepts/C100238", "Code": "C100238", "SystemName": "CDISC Biomedical Concept"}, {"System": "/mdr/specializations/sdtm/datasetspecializations/ADCOR", "Code": "ADCOR", "SystemName": "CDISC SDTM Dataset Specialization"}]}, {"OID": "IG.ADASCOGSC_08_9_ADCRGT01_1", "Name": "CDISC ADAS-Cog - Word Recognition Trial 1 Subscore", "Repeating": "No", "Type": "Concept", "Description": {"TranslatedText": [{"_content": "CDISC ADAS-Cog - Word Recognition Trial 1 Subscore", "Type": "text/plain", "lang": "en"}]}, "ItemRef": [{"ItemOID": "IT.ADASCOGSC_08_9_ADCRGT01_1.ADCRGT01_FTORRES", "OrderNumber": 2, "Mandatory": "Yes"}, {"ItemOID": "IT.ADASCOGSC_08_9_ADCRGT01_1.ADCRGT01_FTREASND", "OrderNumber": 3, "Mandatory": "No"}], "Coding": [{"System": "/mdr/bc/biomedicalconcepts/C100248", "Code": "C100248", "SystemName": "CDISC Biomedical Concept"}, {"System": "/mdr/specializations/sdtm/datasetspecializations/ADCRGT01", "Code": "ADCRGT01", "SystemName": "CDISC SDTM Dataset Specialization"}]}, {"OID": "IG.ADASCOGSC_08_9_ADCRGT02_2", "Name": "CDISC ADAS-Cog - Word Recognition Trial 2 Subscore", "Repeating": "No", "Type": "Concept", "Description": {"TranslatedText": [{"_content": "CDISC ADAS-Cog - Word Recognition Trial 2 Subscore", "Type": "text/plain", "lang": "en"}]}, "ItemRef": [{"ItemOID": "IT.ADASCOGSC_08_9_ADCRGT02_2.ADCRGT02_FTORRES", "OrderNumber": 2, "Mandatory": "Yes"}, {"ItemOID": "IT.ADASCOGSC_08_9_ADCRGT02_2.ADCRGT02_FTREASND", "OrderNumber": 3, "Mandatory": "No"}], "Coding": [{"System": "/mdr/bc/biomedicalconcepts/C100249", "Code": "C100249", "SystemName": "CDISC Biomedical Concept"}, {"System": "/mdr/specializations/sdtm/datasetspecializations/ADCRGT02", "Code": "ADCRGT02", "SystemName": "CDISC SDTM Dataset Specialization"}]}, {"OID": "IG.ADASCOGSC_08_9_ADCRGT03_3", "Name": "CDISC ADAS-Cog - Word Recognition Trial 3 Subscore", "Repeating": "No", "Type": "Concept", "Description": {"TranslatedText": [{"_content": "CDISC ADAS-Cog - Word Recognition Trial 3 Subscore", "Type": "text/plain", "lang": "en"}]}, "ItemRef": [{"ItemOID": "IT.ADASCOGSC_08_9_ADCRGT03_3.ADCRGT03_FTORRES", "OrderNumber": 2, "Mandatory": "Yes"}, {"ItemOID": "IT.ADASCOGSC_08_9_ADCRGT03_3.ADCRGT03_FTREASND", "OrderNumber": 3, "Mandatory": "No"}], "Coding": [{"System": "/mdr/bc/biomedicalconcepts/C100250", "Code": "C100250", "SystemName": "CDISC Biomedical Concept"}, {"System": "/mdr/specializations/sdtm/datasetspecializations/ADCRGT03", "Code": "ADCRGT03", "SystemName": "CDISC SDTM Dataset Specialization"}]}, {"OID": "IG.ADASCOGSC_08_9_ADCRG_4", "Name": "CDISC ADAS-Cog - Word Recognition Summary Score", "Repeating": "No", "Type": "Concept", "Description": {"TranslatedText": [{"_content": "CDISC ADAS-Cog - Word Recognition Summary Score", "Type": "text/plain", "lang": "en"}]}, "ItemRef": [{"ItemOID": "IT.ADASCOGSC_08_9_ADCRG_4.ADCRG_FTORRES", "OrderNumber": 2, "Mandatory": "Yes"}, {"ItemOID": "IT.ADASCOGSC_08_9_ADCRG_4.ADCRG_FTREASND", "OrderNumber": 3, "Mandatory": "No"}], "Coding": [{"System": "/mdr/bc/biomedicalconcepts/C100247", "Code": "C100247", "SystemName": "CDISC Biomedical Concept"}, {"System": "/mdr/specializations/sdtm/datasetspecializations/ADCRG", "Code": "ADCRG", "SystemName": "CDISC SDTM Dataset Specialization"}]}, {"OID": "IG.ADASCOGSC_09_10_ADCRI_1", "Name": "CDISC ADAS-Cog - Remembering Test Instructions", "Repeating": "No", "Type": "Concept", "Description": {"TranslatedText": [{"_content": "CDISC ADAS-Cog - Remembering Test Instructions", "Type": "text/plain", "lang": "en"}]}, "ItemRef": [{"ItemOID": "IT.ADASCOGSC_09_10_ADCRI_1.ADCRI_FTORRES", "OrderNumber": 2, "Mandatory": "Yes"}, {"ItemOID": "IT.ADASCOGSC_09_10_ADCRI_1.ADCRI_FTREASND", "OrderNumber": 3, "Mandatory": "No"}], "Coding": [{"System": "/mdr/bc/biomedicalconcepts/C100275", "Code": "C100275", "SystemName": "CDISC Biomedical Concept"}, {"System": "/mdr/specializations/sdtm/datasetspecializations/ADCRI", "Code": "ADCRI", "SystemName": "CDISC SDTM Dataset Specialization"}]}, {"OID": "IG.ADASCOGSC_10_11_ADCSL_1", "Name": "CDISC ADAS-Cog - Spoken Language Ability", "Repeating": "No", "Type": "Concept", "Description": {"TranslatedText": [{"_content": "CDISC ADAS-Cog - Spoken Language Ability", "Type": "text/plain", "lang": "en"}]}, "ItemRef": [{"ItemOID": "IT.ADASCOGSC_10_11_ADCSL_1.ADCSL_FTORRES", "OrderNumber": 2, "Mandatory": "Yes"}], "Coding": [{"System": "/mdr/bc/biomedicalconcepts/C100276", "Code": "C100276", "SystemName": "CDISC Biomedical Concept"}, {"System": "/mdr/specializations/sdtm/datasetspecializations/ADCSL", "Code": "ADCSL", "SystemName": "CDISC SDTM Dataset Specialization"}]}, {"OID": "IG.ADASCOGSC_11_12_ADCDIF_1", "Name": "CDISC ADAS-Cog - Word Difficulty in Spontaneous Speech", "Repeating": "No", "Type": "Concept", "Description": {"TranslatedText": [{"_content": "CDISC ADAS-Cog - Word Difficulty in Spontaneous Speech", "Type": "text/plain", "lang": "en"}]}, "ItemRef": [{"ItemOID": "IT.ADASCOGSC_11_12_ADCDIF_1.ADCDIF_FTORRES", "OrderNumber": 2, "Mandatory": "Yes"}, {"ItemOID": "IT.ADASCOGSC_11_12_ADCDIF_1.ADCDIF_FTREASND", "OrderNumber": 3, "Mandatory": "No"}], "Coding": [{"System": "/mdr/bc/biomedicalconcepts/C100277", "Code": "C100277", "SystemName": "CDISC Biomedical Concept"}, {"System": "/mdr/specializations/sdtm/datasetspecializations/ADCDIF", "Code": "ADCDIF", "SystemName": "CDISC SDTM Dataset Specialization"}]}, {"OID": "IG.ADASCOGSC_12_13_ADCCMP_1", "Name": "CDISC ADAS-Cog - Comprehension", "Repeating": "No", "Type": "Concept", "Description": {"TranslatedText": [{"_content": "CDISC ADAS-Cog - Comprehension", "Type": "text/plain", "lang": "en"}]}, "ItemRef": [{"ItemOID": "IT.ADASCOGSC_12_13_ADCCMP_1.ADCCMP_FTORRES", "OrderNumber": 2, "Mandatory": "Yes"}], "Coding": [{"System": "/mdr/bc/biomedicalconcepts/C100278", "Code": "C100278", "SystemName": "CDISC Biomedical Concept"}, {"System": "/mdr/specializations/sdtm/datasetspecializations/ADCCMP", "Code": "ADCCMP", "SystemName": "CDISC SDTM Dataset Specialization"}]}, {"OID": "IG.ADASCOGSC_13_14_ADCCON_1", "Name": "CDISC ADAS-Cog - Concentration/Distractibility", "Repeating": "No", "Type": "Concept", "Description": {"TranslatedText": [{"_content": "CDISC ADAS-Cog - Concentration/Distractibility", "Type": "text/plain", "lang": "en"}]}, "ItemRef": [{"ItemOID": "IT.ADASCOGSC_13_14_ADCCON_1.ADCCON_FTORRES", "OrderNumber": 2, "Mandatory": "Yes"}, {"ItemOID": "IT.ADASCOGSC_13_14_ADCCON_1.ADCCON_FTREASND", "OrderNumber": 3, "Mandatory": "No"}], "Coding": [{"System": "/mdr/bc/biomedicalconcepts/C100279", "Code": "C100279", "SystemName": "CDISC Biomedical Concept"}, {"System": "/mdr/specializations/sdtm/datasetspecializations/ADCCON", "Code": "ADCCON", "SystemName": "CDISC SDTM Dataset Specialization"}]}, {"OID": "IG.ADASCOGSC_14_15_ADCNC01_1", "Name": "CDISC ADAS-Cog - Number Cancellation: Correct", "Repeating": "No", "Type": "Concept", "Description": {"TranslatedText": [{"_content": "CDISC ADAS-Cog - Number Cancellation: Correct", "Type": "text/plain", "lang": "en"}]}, "ItemRef": [{"ItemOID": "IT.ADASCOGSC_14_15_ADCNC01_1.ADCNC01_FTORRES", "OrderNumber": 2, "Mandatory": "Yes"}, {"ItemOID": "IT.ADASCOGSC_14_15_ADCNC01_1.ADCNC01_FTREASND", "OrderNumber": 3, "Mandatory": "No"}], "Coding": [{"System": "/mdr/bc/biomedicalconcepts/C100281", "Code": "C100281", "SystemName": "CDISC Biomedical Concept"}, {"System": "/mdr/specializations/sdtm/datasetspecializations/ADCNC01", "Code": "ADCNC01", "SystemName": "CDISC SDTM Dataset Specialization"}]}, {"OID": "IG.ADASCOGSC_14_15_ADCNC02_2", "Name": "CDISC ADAS-Cog - Number Cancellation: Errors", "Repeating": "No", "Type": "Concept", "Description": {"TranslatedText": [{"_content": "CDISC ADAS-Cog - Number Cancellation: Errors", "Type": "text/plain", "lang": "en"}]}, "ItemRef": [{"ItemOID": "IT.ADASCOGSC_14_15_ADCNC02_2.ADCNC02_FTORRES", "OrderNumber": 2, "Mandatory": "Yes"}, {"ItemOID": "IT.ADASCOGSC_14_15_ADCNC02_2.ADCNC02_FTREASND", "OrderNumber": 3, "Mandatory": "No"}], "Coding": [{"System": "/mdr/bc/biomedicalconcepts/C100282", "Code": "C100282", "SystemName": "CDISC Biomedical Concept"}, {"System": "/mdr/specializations/sdtm/datasetspecializations/ADCNC02", "Code": "ADCNC02", "SystemName": "CDISC SDTM Dataset Specialization"}]}, {"OID": "IG.ADASCOGSC_14_15_ADCNC03_3", "Name": "CDISC ADAS-Cog - Number Cancellation: Remind", "Repeating": "No", "Type": "Concept", "Description": {"TranslatedText": [{"_content": "CDISC ADAS-Cog - Number Cancellation: Remind", "Type": "text/plain", "lang": "en"}]}, "ItemRef": [{"ItemOID": "IT.ADASCOGSC_14_15_ADCNC03_3.ADCNC03_FTORRES", "OrderNumber": 2, "Mandatory": "Yes"}, {"ItemOID": "IT.ADASCOGSC_14_15_ADCNC03_3.ADCNC03_FTREASND", "OrderNumber": 3, "Mandatory": "No"}], "Coding": [{"System": "/mdr/bc/biomedicalconcepts/C100283", "Code": "C100283", "SystemName": "CDISC Biomedical Concept"}, {"System": "/mdr/specializations/sdtm/datasetspecializations/ADCNC03", "Code": "ADCNC03", "SystemName": "CDISC SDTM Dataset Specialization"}]}, {"OID": "IG.ADASCOGSC_14_15_ADCNC_4", "Name": "CDISC ADAS-Cog - Number Cancellation Summary Score", "Repeating": "No", "Type": "Concept", "Description": {"TranslatedText": [{"_content": "CDISC ADAS-Cog - Number Cancellation Summary Score", "Type": "text/plain", "lang": "en"}]}, "ItemRef": [{"ItemOID": "IT.ADASCOGSC_14_15_ADCNC_4.ADCNC_FTORRES", "OrderNumber": 2, "Mandatory": "Yes"}, {"ItemOID": "IT.ADASCOGSC_14_15_ADCNC_4.ADCNC_FTREASND", "OrderNumber": 3, "Mandatory": "No"}], "Coding": [{"System": "/mdr/bc/biomedicalconcepts/C100280", "Code": "C100280", "SystemName": "CDISC Biomedical Concept"}, {"System": "/mdr/specializations/sdtm/datasetspecializations/ADCNC", "Code": "ADCNC", "SystemName": "CDISC SDTM Dataset Specialization"}]}, {"OID": "IG.ADASCOGSC_15_16_ADCMZ01_1", "Name": "CDISC ADAS-Cog - Executive Function Maze: Errors", "Repeating": "No", "Type": "Concept", "Description": {"TranslatedText": [{"_content": "CDISC ADAS-Cog - Executive Function Maze: Errors", "Type": "text/plain", "lang": "en"}]}, "ItemRef": [{"ItemOID": "IT.ADASCOGSC_15_16_ADCMZ01_1.ADCMZ01_FTORRES", "OrderNumber": 2, "Mandatory": "Yes"}, {"ItemOID": "IT.ADASCOGSC_15_16_ADCMZ01_1.ADCMZ01_FTREASND", "OrderNumber": 3, "Mandatory": "No"}], "Coding": [{"System": "/mdr/bc/biomedicalconcepts/C100285", "Code": "C100285", "SystemName": "CDISC Biomedical Concept"}, {"System": "/mdr/specializations/sdtm/datasetspecializations/ADCMZ01", "Code": "ADCMZ01", "SystemName": "CDISC SDTM Dataset Specialization"}]}, {"OID": "IG.ADASCOGSC_15_16_ADCMZ02_2", "Name": "CDISC ADAS-Cog - Executive Function Maze: Time", "Repeating": "No", "Type": "Concept", "Description": {"TranslatedText": [{"_content": "CDISC ADAS-Cog - Executive Function Maze: Time", "Type": "text/plain", "lang": "en"}]}, "ItemRef": [{"ItemOID": "IT.ADASCOGSC_15_16_ADCMZ02_2.ADCMZ02_FTORRES", "OrderNumber": 2, "Mandatory": "Yes"}, {"ItemOID": "IT.ADASCOGSC_15_16_ADCMZ02_2.ADCMZ02_FTORRESU", "OrderNumber": 3, "Mandatory": "Yes", "PreSpecifiedValue": "s"}, {"ItemOID": "IT.ADASCOGSC_15_16_ADCMZ02_2.ADCMZ02_FTREASND", "OrderNumber": 4, "Mandatory": "No"}], "Coding": [{"System": "/mdr/bc/biomedicalconcepts/C100286", "Code": "C100286", "SystemName": "CDISC Biomedical Concept"}, {"System": "/mdr/specializations/sdtm/datasetspecializations/ADCMZ02", "Code": "ADCMZ02", "SystemName": "CDISC SDTM Dataset Specialization"}]}, {"OID": "IG.ADASCOGSC_15_16_ADCMZ_3", "Name": "CDISC ADAS-Cog - Executive Function Maze Summary Score", "Repeating": "No", "Type": "Concept", "Description": {"TranslatedText": [{"_content": "CDISC ADAS-Cog - Executive Function Maze Summary Score", "Type": "text/plain", "lang": "en"}]}, "ItemRef": [{"ItemOID": "IT.ADASCOGSC_15_16_ADCMZ_3.ADCMZ_FTORRES", "OrderNumber": 2, "Mandatory": "Yes"}, {"ItemOID": "IT.ADASCOGSC_15_16_ADCMZ_3.ADCMZ_FTREASND", "OrderNumber": 3, "Mandatory": "No"}], "Coding": [{"System": "/mdr/bc/biomedicalconcepts/C100284", "Code": "C100284", "SystemName": "CDISC Biomedical Concept"}, {"System": "/mdr/specializations/sdtm/datasetspecializations/ADCMZ", "Code": "ADCMZ", "SystemName": "CDISC SDTM Dataset Specialization"}]}], "ItemDef": [{"OID": "IT.ADASCOG_01_1_ADASCOG_1.ADASCOG_FTPERF", "Name": "ADASCOG_FTPERF", "DataType": "text", "Length": 1, "Question": {"TranslatedText": [{"_content": "Was the ADAS-COG Functional Test performed?", "Type": "text/plain", "lang": "en"}]}, "CodeListRef": {"CodeListOID": "CL.ADASCOG_01_ADASCOG_1.ADASCOG_FTPERF.C66742"}, "Alias": [{"Context": "SDTM", "Name": "[NOT SUBMITTED]; FTSTAT = NOT DONE when FTTESTCD = FTALL"}]}, {"OID": "IT.ADASCOG_01_1_ADASCOG_1.ADASCOG_FTDAT", "Name": "ADASCOG_FTDAT", "DataType": "date", "Length": 10, "Prompt": {"TranslatedText": [{"_content": "Date of Assessment", "Type": "text/plain", "lang": "en"}]}, "Alias": [{"Context": "SDTM", "Name": "FTDTC"}]}, {"OID": "IT.ADASCOG_01_1_ADASCOG_1.ADASCOG_FTREASND", "Name": "ADASCOG_FTREASND", "DataType": "text", "Length": 200, "Question": {"TranslatedText": [{"_content": "If any item(s) are incomplete or not done, please specify reason:", "Type": "text/plain", "lang": "en"}]}, "CodeListRef": {"CodeListOID": "CL.ADASCOG_01_ADASCOG_1.ADASCOG_FTREASND"}, "Alias": [{"Context": "SDTM", "Name": "FTREASND"}]}, {"OID": "IT.ADASCOGSC_01_2_ADCRLT01_1.ADCRLT01_FTORRES", "Name": "ADCRLT01_FTORRES", "DataType": "integer", "Length": 3, "Prompt": {"TranslatedText": [{"_content": "WORD RECALL / TRIAL 1", "Type": "text/plain", "lang": "en"}]}, "Alias": [{"Context": "SDTM", "Name": "FTORRES when FTTESTCD = ADCRLT01"}]}, {"OID": "IT.ADASCOGSC_01_2_ADCRLT01_1.ADCRLT01_FTREASND", "Name": "ADCRLT01_FTREASND", "DataType": "text", "Length": 200, "Question": {"TranslatedText": [{"_content": "If any item(s) are incomplete or not done, please specify reason:", "Type": "text/plain", "lang": "en"}]}, "CodeListRef": {"CodeListOID": "CL.ADASCOGSC_01_ADCRLT01_1.ADCRLT01_FTREASND"}, "Alias": [{"Context": "SDTM", "Name": "FTREASND"}]}, {"OID": "IT.ADASCOGSC_01_2_ADCRLT02_2.ADCRLT02_FTORRES", "Name": "ADCRLT02_FTORRES", "DataType": "integer", "Length": 3, "Prompt": {"TranslatedText": [{"_content": "WORD RECALL / TRIAL 2", "Type": "text/plain", "lang": "en"}]}, "Alias": [{"Context": "SDTM", "Name": "FTORRES when FTTESTCD = ADCRLT02"}]}, {"OID": "IT.ADASCOGSC_01_2_ADCRLT02_2.ADCRLT02_FTREASND", "Name": "ADCRLT02_FTREASND", "DataType": "text", "Length": 200, "Question": {"TranslatedText": [{"_content": "If any item(s) are incomplete or not done, please specify reason:", "Type": "text/plain", "lang": "en"}]}, "CodeListRef": {"CodeListOID": "CL.ADASCOGSC_01_ADCRLT02_2.ADCRLT02_FTREASND"}, "Alias": [{"Context": "SDTM", "Name": "FTREASND"}]}, {"OID": "IT.ADASCOGSC_01_2_ADCRLT03_3.ADCRLT03_FTORRES", "Name": "ADCRLT03_FTORRES", "DataType": "integer", "Length": 3, "Prompt": {"TranslatedText": [{"_content": "WORD RECALL / TRIAL 3", "Type": "text/plain", "lang": "en"}]}, "Alias": [{"Context": "SDTM", "Name": "FTORRES when FTTESTCD = ADCRLT03"}]}, {"OID": "IT.ADASCOGSC_01_2_ADCRLT03_3.ADCRLT03_FTREASND", "Name": "ADCRLT03_FTREASND", "DataType": "text", "Length": 200, "Question": {"TranslatedText": [{"_content": "If any item(s) are incomplete or not done, please specify reason:", "Type": "text/plain", "lang": "en"}]}, "CodeListRef": {"CodeListOID": "CL.ADASCOGSC_01_ADCRLT03_3.ADCRLT03_FTREASND"}, "Alias": [{"Context": "SDTM", "Name": "FTREASND"}]}, {"OID": "IT.ADASCOGSC_01_2_ADCRL_4.ADCRL_FTORRES", "Name": "ADCRL_FTORRES", "DataType": "decimal", "Length": 5, "Prompt": {"TranslatedText": [{"_content": "WORD RECALL SUMMARY", "Type": "text/plain", "lang": "en"}]}, "CodeListRef": {"CodeListOID": "CL.ADASCOGSC_01_ADCRL_4.ADCRL_FTORRES"}, "Alias": [{"Context": "SDTM", "Name": "FTORRES when FTTESTCD = ADCRL"}]}, {"OID": "IT.ADASCOGSC_01_2_ADCRL_4.ADCRL_FTREASND", "Name": "ADCRL_FTREASND", "DataType": "text", "Length": 200, "Question": {"TranslatedText": [{"_content": "If any item(s) are incomplete or not done, please specify reason:", "Type": "text/plain", "lang": "en"}]}, "CodeListRef": {"CodeListOID": "CL.ADASCOGSC_01_ADCRL_4.ADCRL_FTREASND"}, "Alias": [{"Context": "SDTM", "Name": "FTREASND"}]}, {"OID": "IT.ADASCOGSC_02_3_ADCOF_1.ADCOF_FTORRES", "Name": "ADCOF_FTORRES", "DataType": "text", "Length": 5, "Prompt": {"TranslatedText": [{"_content": "NAMING OBJECTS AND FINGERS", "Type": "text/plain", "lang": "en"}]}, "CodeListRef": {"CodeListOID": "CL.ADASCOGSC_02_ADCOF_1.ADCOF_FTORRES"}, "Alias": [{"Context": "SDTM", "Name": "FTORRES when FTTESTCD = ADCOF"}]}, {"OID": "IT.ADASCOGSC_02_3_ADCOF_1.ADCOF_FTREASND", "Name": "ADCOF_FTREASND", "DataType": "text", "Length": 200, "Question": {"TranslatedText": [{"_content": "If any item(s) are incomplete or not done, please specify reason:", "Type": "text/plain", "lang": "en"}]}, "CodeListRef": {"CodeListOID": "CL.ADASCOGSC_02_ADCOF_1.ADCOF_FTREASND"}, "Alias": [{"Context": "SDTM", "Name": "FTREASND"}]}, {"OID": "IT.ADASCOGSC_03_4_ADCCMD_1.ADCCMD_FTORRES", "Name": "ADCCMD_FTORRES", "DataType": "text", "Length": 5, "Prompt": {"TranslatedText": [{"_content": "COMMANDS", "Type": "text/plain", "lang": "en"}]}, "CodeListRef": {"CodeListOID": "CL.ADASCOGSC_03_ADCCMD_1.ADCCMD_FTORRES"}, "Alias": [{"Context": "SDTM", "Name": "FTORRES when FTTESTCD = ADCCMD"}]}, {"OID": "IT.ADASCOGSC_03_4_ADCCMD_1.ADCCMD_FTREASND", "Name": "ADCCMD_FTREASND", "DataType": "text", "Length": 200, "Question": {"TranslatedText": [{"_content": "If any item(s) are incomplete or not done, please specify reason:", "Type": "text/plain", "lang": "en"}]}, "CodeListRef": {"CodeListOID": "CL.ADASCOGSC_03_ADCCMD_1.ADCCMD_FTREASND"}, "Alias": [{"Context": "SDTM", "Name": "FTREASND"}]}, {"OID": "IT.ADASCOGSC_04_5_ADCDRL_1.ADCDRL_FTORRES", "Name": "ADCDRL_FTORRES", "DataType": "integer", "Length": 2, "Prompt": {"TranslatedText": [{"_content": "DELAYED WORD RECALL", "Type": "text/plain", "lang": "en"}]}, "CodeListRef": {"CodeListOID": "CL.ADASCOGSC_04_ADCDRL_1.ADCDRL_FTORRES"}, "Alias": [{"Context": "SDTM", "Name": "FTORRES when FTTESTCD = ADCDRL"}]}, {"OID": "IT.ADASCOGSC_04_5_ADCDRL_1.ADCDRL_FTREASND", "Name": "ADCDRL_FTREASND", "DataType": "text", "Length": 200, "Question": {"TranslatedText": [{"_content": "If any item(s) are incomplete or not done, please specify reason:", "Type": "text/plain", "lang": "en"}]}, "CodeListRef": {"CodeListOID": "CL.ADASCOGSC_04_ADCDRL_1.ADCDRL_FTREASND"}, "Alias": [{"Context": "SDTM", "Name": "FTREASND"}]}, {"OID": "IT.ADASCOGSC_05_6_ADCCP_1.ADCCP_FTORRES", "Name": "ADCCP_FTORRES", "DataType": "text", "Length": 5, "Prompt": {"TranslatedText": [{"_content": "CONSTRUCTIONAL PRAXIS", "Type": "text/plain", "lang": "en"}]}, "CodeListRef": {"CodeListOID": "CL.ADASCOGSC_05_ADCCP_1.ADCCP_FTORRES"}, "Alias": [{"Context": "SDTM", "Name": "FTORRES when FTTESTCD = ADCCP"}]}, {"OID": "IT.ADASCOGSC_05_6_ADCCP_1.ADCCP_FTREASND", "Name": "ADCCP_FTREASND", "DataType": "text", "Length": 200, "Question": {"TranslatedText": [{"_content": "If any item(s) are incomplete or not done, please specify reason:", "Type": "text/plain", "lang": "en"}]}, "CodeListRef": {"CodeListOID": "CL.ADASCOGSC_05_ADCCP_1.ADCCP_FTREASND"}, "Alias": [{"Context": "SDTM", "Name": "FTREASND"}]}, {"OID": "IT.ADASCOGSC_06_7_ADCIP_1.ADCIP_FTORRES", "Name": "ADCIP_FTORRES", "DataType": "text", "Length": 5, "Prompt": {"TranslatedText": [{"_content": "IDEATIONAL PRAXIS", "Type": "text/plain", "lang": "en"}]}, "CodeListRef": {"CodeListOID": "CL.ADASCOGSC_06_ADCIP_1.ADCIP_FTORRES"}, "Alias": [{"Context": "SDTM", "Name": "FTORRES when FTTESTCD = ADCIP"}]}, {"OID": "IT.ADASCOGSC_06_7_ADCIP_1.ADCIP_FTREASND", "Name": "ADCIP_FTREASND", "DataType": "text", "Length": 200, "Question": {"TranslatedText": [{"_content": "If any item(s) are incomplete or not done, please specify reason:", "Type": "text/plain", "lang": "en"}]}, "CodeListRef": {"CodeListOID": "CL.ADASCOGSC_06_ADCIP_1.ADCIP_FTREASND"}, "Alias": [{"Context": "SDTM", "Name": "FTREASND"}]}, {"OID": "IT.ADASCOGSC_07_8_ADCOR_1.ADCOR_FTORRES", "Name": "ADCOR_FTORRES", "DataType": "integer", "Length": 2, "Prompt": {"TranslatedText": [{"_content": "ORIENTATION", "Type": "text/plain", "lang": "en"}]}, "CodeListRef": {"CodeListOID": "CL.ADASCOGSC_07_ADCOR_1.ADCOR_FTORRES"}, "Alias": [{"Context": "SDTM", "Name": "FTORRES when FTTESTCD = ADCOR"}]}, {"OID": "IT.ADASCOGSC_07_8_ADCOR_1.ADCOR_FTREASND", "Name": "ADCOR_FTREASND", "DataType": "text", "Length": 200, "Question": {"TranslatedText": [{"_content": "If any item(s) are incomplete or not done, please specify reason:", "Type": "text/plain", "lang": "en"}]}, "CodeListRef": {"CodeListOID": "CL.ADASCOGSC_07_ADCOR_1.ADCOR_FTREASND"}, "Alias": [{"Context": "SDTM", "Name": "FTREASND"}]}, {"OID": "IT.ADASCOGSC_08_9_ADCRGT01_1.ADCRGT01_FTORRES", "Name": "ADCRGT01_FTORRES", "DataType": "integer", "Length": 2, "Prompt": {"TranslatedText": [{"_content": "WORD RECOGNITION / TRIAL 1", "Type": "text/plain", "lang": "en"}]}, "Alias": [{"Context": "SDTM", "Name": "FTORRES when FTTESTCD = ADCRGT01"}]}, {"OID": "IT.ADASCOGSC_08_9_ADCRGT01_1.ADCRGT01_FTREASND", "Name": "ADCRGT01_FTREASND", "DataType": "text", "Length": 200, "Question": {"TranslatedText": [{"_content": "If any item(s) are incomplete or not done, please specify reason:", "Type": "text/plain", "lang": "en"}]}, "CodeListRef": {"CodeListOID": "CL.ADASCOGSC_08_ADCRGT01_1.ADCRGT01_FTREASND"}, "Alias": [{"Context": "SDTM", "Name": "FTREASND"}]}, {"OID": "IT.ADASCOGSC_08_9_ADCRGT02_2.ADCRGT02_FTORRES", "Name": "ADCRGT02_FTORRES", "DataType": "integer", "Length": 2, "Prompt": {"TranslatedText": [{"_content": "WORD RECOGNITION / TRIAL 2", "Type": "text/plain", "lang": "en"}]}, "Alias": [{"Context": "SDTM", "Name": "FTORRES when FTTESTCD = ADCRGT02"}]}, {"OID": "IT.ADASCOGSC_08_9_ADCRGT02_2.ADCRGT02_FTREASND", "Name": "ADCRGT02_FTREASND", "DataType": "text", "Length": 200, "Question": {"TranslatedText": [{"_content": "If any item(s) are incomplete or not done, please specify reason:", "Type": "text/plain", "lang": "en"}]}, "CodeListRef": {"CodeListOID": "CL.ADASCOGSC_08_ADCRGT02_2.ADCRGT02_FTREASND"}, "Alias": [{"Context": "SDTM", "Name": "FTREASND"}]}, {"OID": "IT.ADASCOGSC_08_9_ADCRGT03_3.ADCRGT03_FTORRES", "Name": "ADCRGT03_FTORRES", "DataType": "integer", "Length": 2, "Prompt": {"TranslatedText": [{"_content": "WORD RECOGNITION / TRIAL 3", "Type": "text/plain", "lang": "en"}]}, "Alias": [{"Context": "SDTM", "Name": "FTORRES when FTTESTCD = ADCRGT03"}]}, {"OID": "IT.ADASCOGSC_08_9_ADCRGT03_3.ADCRGT03_FTREASND", "Name": "ADCRGT03_FTREASND", "DataType": "text", "Length": 200, "Question": {"TranslatedText": [{"_content": "If any item(s) are incomplete or not done, please specify reason:", "Type": "text/plain", "lang": "en"}]}, "CodeListRef": {"CodeListOID": "CL.ADASCOGSC_08_ADCRGT03_3.ADCRGT03_FTREASND"}, "Alias": [{"Context": "SDTM", "Name": "FTREASND"}]}, {"OID": "IT.ADASCOGSC_08_9_ADCRG_4.ADCRG_FTORRES", "Name": "ADCRG_FTORRES", "DataType": "decimal", "Length": 5, "Prompt": {"TranslatedText": [{"_content": "WORD RECOGNITION SUMMARY", "Type": "text/plain", "lang": "en"}]}, "CodeListRef": {"CodeListOID": "CL.ADASCOGSC_08_ADCRG_4.ADCRG_FTORRES"}, "Alias": [{"Context": "SDTM", "Name": "FTORRES when FTTESTCD = ADCRG"}]}, {"OID": "IT.ADASCOGSC_08_9_ADCRG_4.ADCRG_FTREASND", "Name": "ADCRG_FTREASND", "DataType": "text", "Length": 200, "Question": {"TranslatedText": [{"_content": "If any item(s) are incomplete or not done, please specify reason:", "Type": "text/plain", "lang": "en"}]}, "CodeListRef": {"CodeListOID": "CL.ADASCOGSC_08_ADCRG_4.ADCRG_FTREASND"}, "Alias": [{"Context": "SDTM", "Name": "FTREASND"}]}, {"OID": "IT.ADASCOGSC_09_10_ADCRI_1.ADCRI_FTORRES", "Name": "ADCRI_FTORRES", "DataType": "text", "Length": 5, "Prompt": {"TranslatedText": [{"_content": "REMEMBERING TEST INSTRUCTIONS", "Type": "text/plain", "lang": "en"}]}, "CodeListRef": {"CodeListOID": "CL.ADASCOGSC_09_ADCRI_1.ADCRI_FTORRES"}, "Alias": [{"Context": "SDTM", "Name": "FTORRES when FTTESTCD = ADCRI"}]}, {"OID": "IT.ADASCOGSC_09_10_ADCRI_1.ADCRI_FTREASND", "Name": "ADCRI_FTREASND", "DataType": "text", "Length": 200, "Question": {"TranslatedText": [{"_content": "If any item(s) are incomplete or not done, please specify reason:", "Type": "text/plain", "lang": "en"}]}, "CodeListRef": {"CodeListOID": "CL.ADASCOGSC_09_ADCRI_1.ADCRI_FTREASND"}, "Alias": [{"Context": "SDTM", "Name": "FTREASND"}]}, {"OID": "IT.ADASCOGSC_10_11_ADCSL_1.ADCSL_FTORRES", "Name": "ADCSL_FTORRES", "DataType": "text", "Length": 5, "Prompt": {"TranslatedText": [{"_content": "SPOKEN LANGUAGE ABILITY", "Type": "text/plain", "lang": "en"}]}, "CodeListRef": {"CodeListOID": "CL.ADASCOGSC_10_ADCSL_1.ADCSL_FTORRES"}, "Alias": [{"Context": "SDTM", "Name": "FTORRES when FTTESTCD = ADCSL"}]}, {"OID": "IT.ADASCOGSC_11_12_ADCDIF_1.ADCDIF_FTORRES", "Name": "ADCDIF_FTORRES", "DataType": "text", "Length": 5, "Prompt": {"TranslatedText": [{"_content": "WORD FINDING DIFFICULTY IN SPONTANEOUS SPEECH", "Type": "text/plain", "lang": "en"}]}, "CodeListRef": {"CodeListOID": "CL.ADASCOGSC_11_ADCDIF_1.ADCDIF_FTORRES"}, "Alias": [{"Context": "SDTM", "Name": "FTORRES when FTTESTCD = ADCDIF"}]}, {"OID": "IT.ADASCOGSC_11_12_ADCDIF_1.ADCDIF_FTREASND", "Name": "ADCDIF_FTREASND", "DataType": "text", "Length": 200, "Question": {"TranslatedText": [{"_content": "If any item(s) are incomplete or not done, please specify reason:", "Type": "text/plain", "lang": "en"}]}, "CodeListRef": {"CodeListOID": "CL.ADASCOGSC_11_ADCDIF_1.ADCDIF_FTREASND"}, "Alias": [{"Context": "SDTM", "Name": "FTREASND"}]}, {"OID": "IT.ADASCOGSC_12_13_ADCCMP_1.ADCCMP_FTORRES", "Name": "ADCCMP_FTORRES", "DataType": "text", "Length": 5, "Prompt": {"TranslatedText": [{"_content": "COMPREHENSION", "Type": "text/plain", "lang": "en"}]}, "CodeListRef": {"CodeListOID": "CL.ADASCOGSC_12_ADCCMP_1.ADCCMP_FTORRES"}, "Alias": [{"Context": "SDTM", "Name": "FTORRES when FTTESTCD = ADCCMP"}]}, {"OID": "IT.ADASCOGSC_13_14_ADCCON_1.ADCCON_FTORRES", "Name": "ADCCON_FTORRES", "DataType": "text", "Length": 5, "Prompt": {"TranslatedText": [{"_content": "CONCENTRATION/DISTRACTABILITY", "Type": "text/plain", "lang": "en"}]}, "CodeListRef": {"CodeListOID": "CL.ADASCOGSC_13_ADCCON_1.ADCCON_FTORRES"}, "Alias": [{"Context": "SDTM", "Name": "FTORRES when FTTESTCD = ADCCON"}]}, {"OID": "IT.ADASCOGSC_13_14_ADCCON_1.ADCCON_FTREASND", "Name": "ADCCON_FTREASND", "DataType": "text", "Length": 200, "Question": {"TranslatedText": [{"_content": "If any item(s) are incomplete or not done, please specify reason:", "Type": "text/plain", "lang": "en"}]}, "CodeListRef": {"CodeListOID": "CL.ADASCOGSC_13_ADCCON_1.ADCCON_FTREASND"}, "Alias": [{"Context": "SDTM", "Name": "FTREASND"}]}, {"OID": "IT.ADASCOGSC_14_15_ADCNC01_1.ADCNC01_FTORRES", "Name": "ADCNC01_FTORRES", "DataType": "integer", "Length": 3, "Prompt": {"TranslatedText": [{"_content": "NUMBER CANCELLATION: CORRECT", "Type": "text/plain", "lang": "en"}]}, "Alias": [{"Context": "SDTM", "Name": "FTORRES when FTTESTCD = ADCNC01"}]}, {"OID": "IT.ADASCOGSC_14_15_ADCNC01_1.ADCNC01_FTREASND", "Name": "ADCNC01_FTREASND", "DataType": "text", "Length": 200, "Question": {"TranslatedText": [{"_content": "If any item(s) are incomplete or not done, please specify reason:", "Type": "text/plain", "lang": "en"}]}, "CodeListRef": {"CodeListOID": "CL.ADASCOGSC_14_ADCNC01_1.ADCNC01_FTREASND"}, "Alias": [{"Context": "SDTM", "Name": "FTREASND"}]}, {"OID": "IT.ADASCOGSC_14_15_ADCNC02_2.ADCNC02_FTORRES", "Name": "ADCNC02_FTORRES", "DataType": "integer", "Length": 3, "Prompt": {"TranslatedText": [{"_content": "NUMBER CANCELLATION: ERRORS", "Type": "text/plain", "lang": "en"}]}, "Alias": [{"Context": "SDTM", "Name": "FTORRES when FTTESTCD = ADCNC02"}]}, {"OID": "IT.ADASCOGSC_14_15_ADCNC02_2.ADCNC02_FTREASND", "Name": "ADCNC02_FTREASND", "DataType": "text", "Length": 200, "Question": {"TranslatedText": [{"_content": "If any item(s) are incomplete or not done, please specify reason:", "Type": "text/plain", "lang": "en"}]}, "CodeListRef": {"CodeListOID": "CL.ADASCOGSC_14_ADCNC02_2.ADCNC02_FTREASND"}, "Alias": [{"Context": "SDTM", "Name": "FTREASND"}]}, {"OID": "IT.ADASCOGSC_14_15_ADCNC03_3.ADCNC03_FTORRES", "Name": "ADCNC03_FTORRES", "DataType": "integer", "Length": 3, "Prompt": {"TranslatedText": [{"_content": "NUMBER CANCELLATION: REMIND", "Type": "text/plain", "lang": "en"}]}, "Alias": [{"Context": "SDTM", "Name": "FTORRES when FTTESTCD = ADCNC03"}]}, {"OID": "IT.ADASCOGSC_14_15_ADCNC03_3.ADCNC03_FTREASND", "Name": "ADCNC03_FTREASND", "DataType": "text", "Length": 200, "Question": {"TranslatedText": [{"_content": "If any item(s) are incomplete or not done, please specify reason:", "Type": "text/plain", "lang": "en"}]}, "CodeListRef": {"CodeListOID": "CL.ADASCOGSC_14_ADCNC03_3.ADCNC03_FTREASND"}, "Alias": [{"Context": "SDTM", "Name": "FTREASND"}]}, {"OID": "IT.ADASCOGSC_14_15_ADCNC_4.ADCNC_FTORRES", "Name": "ADCNC_FTORRES", "DataType": "integer", "Length": 3, "Prompt": {"TranslatedText": [{"_content": "NUMBER CANCELLATION SUMMARY", "Type": "text/plain", "lang": "en"}]}, "Alias": [{"Context": "SDTM", "Name": "FTORRES when FTTESTCD = ADCNC"}]}, {"OID": "IT.ADASCOGSC_14_15_ADCNC_4.ADCNC_FTREASND", "Name": "ADCNC_FTREASND", "DataType": "text", "Length": 200, "Question": {"TranslatedText": [{"_content": "If any item(s) are incomplete or not done, please specify reason:", "Type": "text/plain", "lang": "en"}]}, "CodeListRef": {"CodeListOID": "CL.ADASCOGSC_14_ADCNC_4.ADCNC_FTREASND"}, "Alias": [{"Context": "SDTM", "Name": "FTREASND"}]}, {"OID": "IT.ADASCOGSC_15_16_ADCMZ01_1.ADCMZ01_FTORRES", "Name": "ADCMZ01_FTORRES", "DataType": "integer", "Length": 3, "Prompt": {"TranslatedText": [{"_content": "EXECUTIVE FUNCTION: NUMBER ERRORS", "Type": "text/plain", "lang": "en"}]}, "CodeListRef": {"CodeListOID": "CL.ADASCOGSC_15_ADCMZ01_1.ADCMZ01_FTORRES"}, "Alias": [{"Context": "SDTM", "Name": "FTORRES when FTTESTCD = ADCMZ01"}]}, {"OID": "IT.ADASCOGSC_15_16_ADCMZ01_1.ADCMZ01_FTREASND", "Name": "ADCMZ01_FTREASND", "DataType": "text", "Length": 200, "Question": {"TranslatedText": [{"_content": "If any item(s) are incomplete or not done, please specify reason:", "Type": "text/plain", "lang": "en"}]}, "CodeListRef": {"CodeListOID": "CL.ADASCOGSC_15_ADCMZ01_1.ADCMZ01_FTREASND"}, "Alias": [{"Context": "SDTM", "Name": "FTREASND"}]}, {"OID": "IT.ADASCOGSC_15_16_ADCMZ02_2.ADCMZ02_FTORRES", "Name": "ADCMZ02_FTORRES", "DataType": "integer", "Length": 3, "Prompt": {"TranslatedText": [{"_content": "EXECUTIVE FUNCTION: TIME", "Type": "text/plain", "lang": "en"}]}, "Alias": [{"Context": "SDTM", "Name": "FTORRES when FTTESTCD = ADCMZ02"}]}, {"OID": "IT.ADASCOGSC_15_16_ADCMZ02_2.ADCMZ02_FTORRESU", "Name": "ADCMZ02_FTORRESU", "DataType": "text", "Length": 5, "Prompt": {"TranslatedText": [{"_content": "Unit", "Type": "text/plain", "lang": "en"}]}, "Alias": [{"Context": "SDTM", "Name": "FTORRESU when FTTESTCD = ADCMZ02"}]}, {"OID": "IT.ADASCOGSC_15_16_ADCMZ02_2.ADCMZ02_FTREASND", "Name": "ADCMZ02_FTREASND", "DataType": "text", "Length": 200, "Question": {"TranslatedText": [{"_content": "If any item(s) are incomplete or not done, please specify reason:", "Type": "text/plain", "lang": "en"}]}, "CodeListRef": {"CodeListOID": "CL.ADASCOGSC_15_ADCMZ02_2.ADCMZ02_FTREASND"}, "Alias": [{"Context": "SDTM", "Name": "FTREASND"}]}, {"OID": "IT.ADASCOGSC_15_16_ADCMZ_3.ADCMZ_FTORRES", "Name": "ADCMZ_FTORRES", "DataType": "integer", "Length": 3, "Prompt": {"TranslatedText": [{"_content": "EXECUTIVE FUNCTION SUMMARY", "Type": "text/plain", "lang": "en"}]}, "Alias": [{"Context": "SDTM", "Name": "FTORRES when FTTESTCD = ADCMZ"}]}, {"OID": "IT.ADASCOGSC_15_16_ADCMZ_3.ADCMZ_FTREASND", "Name": "ADCMZ_FTREASND", "DataType": "text", "Length": 200, "Question": {"TranslatedText": [{"_content": "If any item(s) are incomplete or not done, please specify reason:", "Type": "text/plain", "lang": "en"}]}, "CodeListRef": {"CodeListOID": "CL.ADASCOGSC_15_ADCMZ_3.ADCMZ_FTREASND"}, "Alias": [{"Context": "SDTM", "Name": "FTREASND"}]}], "CodeList": [{"OID": "CL.ADASCOG_01_ADASCOG_1.ADASCOG_FTCAT.C115304", "Name": "FTCAT", "DataType": "text", "CodeListItem": [{"CodedValue": "ADAS-COG", "Coding": [{"System": "https://www.cdisc.org/standards/terminology", "Code": "C100191", "SystemName": "CDISC/NCI CT"}]}], "Coding": [{"System": "https://www.cdisc.org/standards/terminology", "Code": "C115304", "SystemName": "CDISC/NCI CT"}]}, {"OID": "CL.ADASCOG_01_ADASCOG_1.ADASCOG_FTPERF.C66742", "Name": "NY", "DataType": "text", "CodeListItem": [{"CodedValue": "N", "Decode": {"TranslatedText": [{"_content": "No", "Type": "text/plain", "lang": "en"}]}}, {"CodedValue": "Y", "Decode": {"TranslatedText": [{"_content": "Yes", "Type": "text/plain", "lang": "en"}]}}], "Coding": [{"System": "https://www.cdisc.org/standards/terminology", "Code": "C66742", "SystemName": "CDISC/NCI CT"}]}, {"OID": "CL.ADASCOG_01_ADASCOG_1.ADASCOG_FTREASND", "Name": "ADASCOG-FTREASND", "DataType": "text", "CodeListItem": [{"CodedValue": "Participant refused", "Decode": {"TranslatedText": [{"_content": "Participant refused", "Type": "text/plain", "lang": "en"}]}}, {"CodedValue": "Participant unable for physical reasons", "Decode": {"TranslatedText": [{"_content": "Participant unable for physical reasons", "Type": "text/plain", "lang": "en"}]}}, {"CodedValue": "Participant unable for cognitive reasons", "Decode": {"TranslatedText": [{"_content": "Participant unable for cognitive reasons", "Type": "text/plain", "lang": "en"}]}}, {"CodedValue": "Not done for reasons other than physical/cognitive", "Decode": {"TranslatedText": [{"_content": "Not done for reasons other than physical/cognitive", "Type": "text/plain", "lang": "en"}]}}]}, {"OID": "CL.ADASCOGSC_01_ADCRLT01_1.ADCRLT01_FTREASND", "Name": "ADCRLT01-FTREASND", "DataType": "text", "CodeListItem": [{"CodedValue": "Participant refused", "Decode": {"TranslatedText": [{"_content": "Participant refused", "Type": "text/plain", "lang": "en"}]}}, {"CodedValue": "Participant unable for physical reasons", "Decode": {"TranslatedText": [{"_content": "Participant unable for physical reasons", "Type": "text/plain", "lang": "en"}]}}, {"CodedValue": "Participant unable for cognitive reasons", "Decode": {"TranslatedText": [{"_content": "Participant unable for cognitive reasons", "Type": "text/plain", "lang": "en"}]}}, {"CodedValue": "Not done for reasons other than physical/cognitive", "Decode": {"TranslatedText": [{"_content": "Not done for reasons other than physical/cognitive", "Type": "text/plain", "lang": "en"}]}}]}, {"OID": "CL.ADASCOGSC_01_ADCRLT02_2.ADCRLT02_FTREASND", "Name": "ADCRLT02-FTREASND", "DataType": "text", "CodeListItem": [{"CodedValue": "Participant refused", "Decode": {"TranslatedText": [{"_content": "Participant refused", "Type": "text/plain", "lang": "en"}]}}, {"CodedValue": "Participant unable for physical reasons", "Decode": {"TranslatedText": [{"_content": "Participant unable for physical reasons", "Type": "text/plain", "lang": "en"}]}}, {"CodedValue": "Participant unable for cognitive reasons", "Decode": {"TranslatedText": [{"_content": "Participant unable for cognitive reasons", "Type": "text/plain", "lang": "en"}]}}, {"CodedValue": "Not done for reasons other than physical/cognitive", "Decode": {"TranslatedText": [{"_content": "Not done for reasons other than physical/cognitive", "Type": "text/plain", "lang": "en"}]}}]}, {"OID": "CL.ADASCOGSC_01_ADCRLT03_3.ADCRLT03_FTREASND", "Name": "ADCRLT03-FTREASND", "DataType": "text", "CodeListItem": [{"CodedValue": "Participant refused", "Decode": {"TranslatedText": [{"_content": "Participant refused", "Type": "text/plain", "lang": "en"}]}}, {"CodedValue": "Participant unable for physical reasons", "Decode": {"TranslatedText": [{"_content": "Participant unable for physical reasons", "Type": "text/plain", "lang": "en"}]}}, {"CodedValue": "Participant unable for cognitive reasons", "Decode": {"TranslatedText": [{"_content": "Participant unable for cognitive reasons", "Type": "text/plain", "lang": "en"}]}}, {"CodedValue": "Not done for reasons other than physical/cognitive", "Decode": {"TranslatedText": [{"_content": "Not done for reasons other than physical/cognitive", "Type": "text/plain", "lang": "en"}]}}]}, {"OID": "CL.ADASCOGSC_01_ADCRL_4.ADCRL_FTORRES", "Name": "ADCRL-FTORRES", "DataType": "decimal", "CodeListItem": [{"CodedValue": "0", "Decode": {"TranslatedText": [{"_content": "0", "Type": "text/plain", "lang": "en"}]}}, {"CodedValue": "0.33", "Decode": {"TranslatedText": [{"_content": "0.33", "Type": "text/plain", "lang": "en"}]}}, {"CodedValue": "0.67", "Decode": {"TranslatedText": [{"_content": "0.67", "Type": "text/plain", "lang": "en"}]}}, {"CodedValue": "1", "Decode": {"TranslatedText": [{"_content": "1", "Type": "text/plain", "lang": "en"}]}}, {"CodedValue": "1.33", "Decode": {"TranslatedText": [{"_content": "1.33", "Type": "text/plain", "lang": "en"}]}}, {"CodedValue": "1.67", "Decode": {"TranslatedText": [{"_content": "1.67", "Type": "text/plain", "lang": "en"}]}}, {"CodedValue": "2", "Decode": {"TranslatedText": [{"_content": "2", "Type": "text/plain", "lang": "en"}]}}, {"CodedValue": "2.33", "Decode": {"TranslatedText": [{"_content": "2.33", "Type": "text/plain", "lang": "en"}]}}, {"CodedValue": "2.67", "Decode": {"TranslatedText": [{"_content": "2.67", "Type": "text/plain", "lang": "en"}]}}, {"CodedValue": "3", "Decode": {"TranslatedText": [{"_content": "3", "Type": "text/plain", "lang": "en"}]}}, {"CodedValue": "3.33", "Decode": {"TranslatedText": [{"_content": "3.33", "Type": "text/plain", "lang": "en"}]}}, {"CodedValue": "3.67", "Decode": {"TranslatedText": [{"_content": "3.67", "Type": "text/plain", "lang": "en"}]}}, {"CodedValue": "4", "Decode": {"TranslatedText": [{"_content": "4", "Type": "text/plain", "lang": "en"}]}}, {"CodedValue": "4.33", "Decode": {"TranslatedText": [{"_content": "4.33", "Type": "text/plain", "lang": "en"}]}}, {"CodedValue": "4.67", "Decode": {"TranslatedText": [{"_content": "4.67", "Type": "text/plain", "lang": "en"}]}}, {"CodedValue": "5", "Decode": {"TranslatedText": [{"_content": "5", "Type": "text/plain", "lang": "en"}]}}, {"CodedValue": "5.33", "Decode": {"TranslatedText": [{"_content": "5.33", "Type": "text/plain", "lang": "en"}]}}, {"CodedValue": "5.67", "Decode": {"TranslatedText": [{"_content": "5.67", "Type": "text/plain", "lang": "en"}]}}, {"CodedValue": "6", "Decode": {"TranslatedText": [{"_content": "6", "Type": "text/plain", "lang": "en"}]}}, {"CodedValue": "6.33", "Decode": {"TranslatedText": [{"_content": "6.33", "Type": "text/plain", "lang": "en"}]}}, {"CodedValue": "6.67", "Decode": {"TranslatedText": [{"_content": "6.67", "Type": "text/plain", "lang": "en"}]}}, {"CodedValue": "7", "Decode": {"TranslatedText": [{"_content": "7", "Type": "text/plain", "lang": "en"}]}}, {"CodedValue": "7.33", "Decode": {"TranslatedText": [{"_content": "7.33", "Type": "text/plain", "lang": "en"}]}}, {"CodedValue": "7.67", "Decode": {"TranslatedText": [{"_content": "7.67", "Type": "text/plain", "lang": "en"}]}}, {"CodedValue": "8", "Decode": {"TranslatedText": [{"_content": "8", "Type": "text/plain", "lang": "en"}]}}, {"CodedValue": "8.33", "Decode": {"TranslatedText": [{"_content": "8.33", "Type": "text/plain", "lang": "en"}]}}, {"CodedValue": "8.67", "Decode": {"TranslatedText": [{"_content": "8.67", "Type": "text/plain", "lang": "en"}]}}, {"CodedValue": "9", "Decode": {"TranslatedText": [{"_content": "9", "Type": "text/plain", "lang": "en"}]}}, {"CodedValue": "9.33", "Decode": {"TranslatedText": [{"_content": "9.33", "Type": "text/plain", "lang": "en"}]}}, {"CodedValue": "9.67", "Decode": {"TranslatedText": [{"_content": "9.67", "Type": "text/plain", "lang": "en"}]}}, {"CodedValue": "10", "Decode": {"TranslatedText": [{"_content": "10", "Type": "text/plain", "lang": "en"}]}}]}, {"OID": "CL.ADASCOGSC_01_ADCRL_4.ADCRL_FTREASND", "Name": "ADCRL-FTREASND", "DataType": "text", "CodeListItem": [{"CodedValue": "Participant refused", "Decode": {"TranslatedText": [{"_content": "Participant refused", "Type": "text/plain", "lang": "en"}]}}, {"CodedValue": "Participant unable for physical reasons", "Decode": {"TranslatedText": [{"_content": "Participant unable for physical reasons", "Type": "text/plain", "lang": "en"}]}}, {"CodedValue": "Participant unable for cognitive reasons", "Decode": {"TranslatedText": [{"_content": "Participant unable for cognitive reasons", "Type": "text/plain", "lang": "en"}]}}, {"CodedValue": "Not done for reasons other than physical/cognitive", "Decode": {"TranslatedText": [{"_content": "Not done for reasons other than physical/cognitive", "Type": "text/plain", "lang": "en"}]}}]}, {"OID": "CL.ADASCOGSC_02_ADCOF_1.ADCOF_FTORRES", "Name": "ADCOF-FTORRES", "DataType": "text", "CodeListItem": [{"CodedValue": "0-2 items (objects and fingers) named incorrectly", "Decode": {"TranslatedText": [{"_content": "0-2 items (objects and fingers) named incorrectly", "Type": "text/plain", "lang": "en"}]}}, {"CodedValue": "3-5 items (objects and fingers) named incorrectly", "Decode": {"TranslatedText": [{"_content": "3-5 items (objects and fingers) named incorrectly", "Type": "text/plain", "lang": "en"}]}}, {"CodedValue": "6-8 items (objects and fingers) named incorrectly", "Decode": {"TranslatedText": [{"_content": "6-8 items (objects and fingers) named incorrectly", "Type": "text/plain", "lang": "en"}]}}, {"CodedValue": "9-11 items (objects and fingers) named incorrectly", "Decode": {"TranslatedText": [{"_content": "9-11 items (objects and fingers) named incorrectly", "Type": "text/plain", "lang": "en"}]}}, {"CodedValue": "12-14 items (objects and fingers) named incorrectly", "Decode": {"TranslatedText": [{"_content": "12-14 items (objects and fingers) named incorrectly", "Type": "text/plain", "lang": "en"}]}}, {"CodedValue": "15-17 items (objects and fingers) named incorrectly", "Decode": {"TranslatedText": [{"_content": "15-17 items (objects and fingers) named incorrectly", "Type": "text/plain", "lang": "en"}]}}]}, {"OID": "CL.ADASCOGSC_02_ADCOF_1.ADCOF_FTREASND", "Name": "ADCOF-FTREASND", "DataType": "text", "CodeListItem": [{"CodedValue": "Participant refused", "Decode": {"TranslatedText": [{"_content": "Participant refused", "Type": "text/plain", "lang": "en"}]}}, {"CodedValue": "Participant unable for physical reasons", "Decode": {"TranslatedText": [{"_content": "Participant unable for physical reasons", "Type": "text/plain", "lang": "en"}]}}, {"CodedValue": "Participant unable for cognitive reasons", "Decode": {"TranslatedText": [{"_content": "Participant unable for cognitive reasons", "Type": "text/plain", "lang": "en"}]}}, {"CodedValue": "Not done for reasons other than physical/cognitive", "Decode": {"TranslatedText": [{"_content": "Not done for reasons other than physical/cognitive", "Type": "text/plain", "lang": "en"}]}}]}, {"OID": "CL.ADASCOGSC_03_ADCCMD_1.ADCCMD_FTORRES", "Name": "ADCCMD-FTORRES", "DataType": "text", "CodeListItem": [{"CodedValue": "all commands correct", "Decode": {"TranslatedText": [{"_content": "All commands correct", "Type": "text/plain", "lang": "en"}]}}, {"CodedValue": "1 command incorrect", "Decode": {"TranslatedText": [{"_content": "1 command incorrect", "Type": "text/plain", "lang": "en"}]}}, {"CodedValue": "2 commands incorrect", "Decode": {"TranslatedText": [{"_content": "2 commands incorrect", "Type": "text/plain", "lang": "en"}]}}, {"CodedValue": "3 commands incorrect", "Decode": {"TranslatedText": [{"_content": "3 commands incorrect", "Type": "text/plain", "lang": "en"}]}}, {"CodedValue": "4 commands incorrect", "Decode": {"TranslatedText": [{"_content": "4 commands incorrect", "Type": "text/plain", "lang": "en"}]}}, {"CodedValue": "all 5 commands incorrect", "Decode": {"TranslatedText": [{"_content": "all 5 commands incorrect", "Type": "text/plain", "lang": "en"}]}}]}, {"OID": "CL.ADASCOGSC_03_ADCCMD_1.ADCCMD_FTREASND", "Name": "ADCCMD-FTREASND", "DataType": "text", "CodeListItem": [{"CodedValue": "Participant refused", "Decode": {"TranslatedText": [{"_content": "Participant refused", "Type": "text/plain", "lang": "en"}]}}, {"CodedValue": "Participant unable for physical reasons", "Decode": {"TranslatedText": [{"_content": "Participant unable for physical reasons", "Type": "text/plain", "lang": "en"}]}}, {"CodedValue": "Participant unable for cognitive reasons", "Decode": {"TranslatedText": [{"_content": "Participant unable for cognitive reasons", "Type": "text/plain", "lang": "en"}]}}, {"CodedValue": "Not done for reasons other than physical/cognitive", "Decode": {"TranslatedText": [{"_content": "Not done for reasons other than physical/cognitive", "Type": "text/plain", "lang": "en"}]}}]}, {"OID": "CL.ADASCOGSC_04_ADCDRL_1.ADCDRL_FTORRES", "Name": "ADCDRL-FTORRES", "DataType": "integer", "CodeListItem": [{"CodedValue": "0", "Decode": {"TranslatedText": [{"_content": "0", "Type": "text/plain", "lang": "en"}]}}, {"CodedValue": "1", "Decode": {"TranslatedText": [{"_content": "1", "Type": "text/plain", "lang": "en"}]}}, {"CodedValue": "2", "Decode": {"TranslatedText": [{"_content": "2", "Type": "text/plain", "lang": "en"}]}}, {"CodedValue": "3", "Decode": {"TranslatedText": [{"_content": "3", "Type": "text/plain", "lang": "en"}]}}, {"CodedValue": "4", "Decode": {"TranslatedText": [{"_content": "4", "Type": "text/plain", "lang": "en"}]}}, {"CodedValue": "5", "Decode": {"TranslatedText": [{"_content": "5", "Type": "text/plain", "lang": "en"}]}}, {"CodedValue": "6", "Decode": {"TranslatedText": [{"_content": "6", "Type": "text/plain", "lang": "en"}]}}, {"CodedValue": "7", "Decode": {"TranslatedText": [{"_content": "7", "Type": "text/plain", "lang": "en"}]}}, {"CodedValue": "8", "Decode": {"TranslatedText": [{"_content": "8", "Type": "text/plain", "lang": "en"}]}}, {"CodedValue": "9", "Decode": {"TranslatedText": [{"_content": "9", "Type": "text/plain", "lang": "en"}]}}, {"CodedValue": "10", "Decode": {"TranslatedText": [{"_content": "10", "Type": "text/plain", "lang": "en"}]}}]}, {"OID": "CL.ADASCOGSC_04_ADCDRL_1.ADCDRL_FTREASND", "Name": "ADCDRL-FTREASND", "DataType": "text", "CodeListItem": [{"CodedValue": "Participant refused", "Decode": {"TranslatedText": [{"_content": "Participant refused", "Type": "text/plain", "lang": "en"}]}}, {"CodedValue": "Participant unable for physical reasons", "Decode": {"TranslatedText": [{"_content": "Participant unable for physical reasons", "Type": "text/plain", "lang": "en"}]}}, {"CodedValue": "Participant unable for cognitive reasons", "Decode": {"TranslatedText": [{"_content": "Participant unable for cognitive reasons", "Type": "text/plain", "lang": "en"}]}}, {"CodedValue": "Not done for reasons other than physical/cognitive", "Decode": {"TranslatedText": [{"_content": "Not done for reasons other than physical/cognitive", "Type": "text/plain", "lang": "en"}]}}]}, {"OID": "CL.ADASCOGSC_05_ADCCP_1.ADCCP_FTORRES", "Name": "ADCCP-FTORRES", "DataType": "text", "CodeListItem": [{"CodedValue": "all 4 drawings correct", "Decode": {"TranslatedText": [{"_content": "All 4 drawings correct", "Type": "text/plain", "lang": "en"}]}}, {"CodedValue": "1 form drawn incorrectly", "Decode": {"TranslatedText": [{"_content": "1 form drawn incorrectly", "Type": "text/plain", "lang": "en"}]}}, {"CodedValue": "2 forms drawn incorrectly", "Decode": {"TranslatedText": [{"_content": "2 forms drawn incorrectly", "Type": "text/plain", "lang": "en"}]}}, {"CodedValue": "3 forms drawn incorrectly", "Decode": {"TranslatedText": [{"_content": "3 forms drawn incorrectly", "Type": "text/plain", "lang": "en"}]}}, {"CodedValue": "4 forms drawn incorrectly (but one or more side/section of at least one shape drawn)", "Decode": {"TranslatedText": [{"_content": "4 forms drawn incorrectly (but one or more side/section of at least one shape drawn)", "Type": "text/plain", "lang": "en"}]}}, {"CodedValue": "No figures drawn, no recognizable attempt at drawing any side/section of any figure", "Decode": {"TranslatedText": [{"_content": "No figures drawn, no recognizable attempt at drawing any side/section of any figure", "Type": "text/plain", "lang": "en"}]}}]}, {"OID": "CL.ADASCOGSC_05_ADCCP_1.ADCCP_FTREASND", "Name": "ADCCP-FTREASND", "DataType": "text", "CodeListItem": [{"CodedValue": "Participant refused", "Decode": {"TranslatedText": [{"_content": "Participant refused", "Type": "text/plain", "lang": "en"}]}}, {"CodedValue": "Participant unable for physical reasons", "Decode": {"TranslatedText": [{"_content": "Participant unable for physical reasons", "Type": "text/plain", "lang": "en"}]}}, {"CodedValue": "Participant unable for cognitive reasons", "Decode": {"TranslatedText": [{"_content": "Participant unable for cognitive reasons", "Type": "text/plain", "lang": "en"}]}}, {"CodedValue": "Not done for reasons other than physical/cognitive", "Decode": {"TranslatedText": [{"_content": "Not done for reasons other than physical/cognitive", "Type": "text/plain", "lang": "en"}]}}]}, {"OID": "CL.ADASCOGSC_06_ADCIP_1.ADCIP_FTORRES", "Name": "ADCIP-FTORRES", "DataType": "text", "CodeListItem": [{"CodedValue": "all components performed correctly", "Decode": {"TranslatedText": [{"_content": "All components performed correctly", "Type": "text/plain", "lang": "en"}]}}, {"CodedValue": "failure to perform 1 component", "Decode": {"TranslatedText": [{"_content": "Failure to perform 1 component", "Type": "text/plain", "lang": "en"}]}}, {"CodedValue": "failure to perform 2 components", "Decode": {"TranslatedText": [{"_content": "Failure to perform 2 components", "Type": "text/plain", "lang": "en"}]}}, {"CodedValue": "failure to perform 3 components", "Decode": {"TranslatedText": [{"_content": "Failure to perform 3 components", "Type": "text/plain", "lang": "en"}]}}, {"CodedValue": "failure to perform 4 components", "Decode": {"TranslatedText": [{"_content": "Failure to perform 4 components", "Type": "text/plain", "lang": "en"}]}}, {"CodedValue": "failure to perform 5 components", "Decode": {"TranslatedText": [{"_content": "Failure to perform 5 components", "Type": "text/plain", "lang": "en"}]}}]}, {"OID": "CL.ADASCOGSC_06_ADCIP_1.ADCIP_FTREASND", "Name": "ADCIP-FTREASND", "DataType": "text", "CodeListItem": [{"CodedValue": "Participant refused", "Decode": {"TranslatedText": [{"_content": "Participant refused", "Type": "text/plain", "lang": "en"}]}}, {"CodedValue": "Participant unable for physical reasons", "Decode": {"TranslatedText": [{"_content": "Participant unable for physical reasons", "Type": "text/plain", "lang": "en"}]}}, {"CodedValue": "Participant unable for cognitive reasons", "Decode": {"TranslatedText": [{"_content": "Participant unable for cognitive reasons", "Type": "text/plain", "lang": "en"}]}}, {"CodedValue": "Not done for reasons other than physical/cognitive", "Decode": {"TranslatedText": [{"_content": "Not done for reasons other than physical/cognitive", "Type": "text/plain", "lang": "en"}]}}]}, {"OID": "CL.ADASCOGSC_07_ADCOR_1.ADCOR_FTORRES", "Name": "ADCOR-FTORRES", "DataType": "integer", "CodeListItem": [{"CodedValue": "0", "Decode": {"TranslatedText": [{"_content": "0", "Type": "text/plain", "lang": "en"}]}}, {"CodedValue": "1", "Decode": {"TranslatedText": [{"_content": "1", "Type": "text/plain", "lang": "en"}]}}, {"CodedValue": "2", "Decode": {"TranslatedText": [{"_content": "2", "Type": "text/plain", "lang": "en"}]}}, {"CodedValue": "3", "Decode": {"TranslatedText": [{"_content": "3", "Type": "text/plain", "lang": "en"}]}}, {"CodedValue": "4", "Decode": {"TranslatedText": [{"_content": "4", "Type": "text/plain", "lang": "en"}]}}, {"CodedValue": "5", "Decode": {"TranslatedText": [{"_content": "5", "Type": "text/plain", "lang": "en"}]}}, {"CodedValue": "6", "Decode": {"TranslatedText": [{"_content": "6", "Type": "text/plain", "lang": "en"}]}}, {"CodedValue": "7", "Decode": {"TranslatedText": [{"_content": "7", "Type": "text/plain", "lang": "en"}]}}, {"CodedValue": "8", "Decode": {"TranslatedText": [{"_content": "8", "Type": "text/plain", "lang": "en"}]}}]}, {"OID": "CL.ADASCOGSC_07_ADCOR_1.ADCOR_FTREASND", "Name": "ADCOR-FTREASND", "DataType": "text", "CodeListItem": [{"CodedValue": "Participant refused", "Decode": {"TranslatedText": [{"_content": "Participant refused", "Type": "text/plain", "lang": "en"}]}}, {"CodedValue": "Participant unable for physical reasons", "Decode": {"TranslatedText": [{"_content": "Participant unable for physical reasons", "Type": "text/plain", "lang": "en"}]}}, {"CodedValue": "Participant unable for cognitive reasons", "Decode": {"TranslatedText": [{"_content": "Participant unable for cognitive reasons", "Type": "text/plain", "lang": "en"}]}}, {"CodedValue": "Not done for reasons other than physical/cognitive", "Decode": {"TranslatedText": [{"_content": "Not done for reasons other than physical/cognitive", "Type": "text/plain", "lang": "en"}]}}]}, {"OID": "CL.ADASCOGSC_08_ADCRGT01_1.ADCRGT01_FTREASND", "Name": "ADCRGT01-FTREASND", "DataType": "text", "CodeListItem": [{"CodedValue": "Participant refused", "Decode": {"TranslatedText": [{"_content": "Participant refused", "Type": "text/plain", "lang": "en"}]}}, {"CodedValue": "Participant unable for physical reasons", "Decode": {"TranslatedText": [{"_content": "Participant unable for physical reasons", "Type": "text/plain", "lang": "en"}]}}, {"CodedValue": "Participant unable for cognitive reasons", "Decode": {"TranslatedText": [{"_content": "Participant unable for cognitive reasons", "Type": "text/plain", "lang": "en"}]}}, {"CodedValue": "Not done for reasons other than physical/cognitive", "Decode": {"TranslatedText": [{"_content": "Not done for reasons other than physical/cognitive", "Type": "text/plain", "lang": "en"}]}}]}, {"OID": "CL.ADASCOGSC_08_ADCRGT02_2.ADCRGT02_FTREASND", "Name": "ADCRGT02-FTREASND", "DataType": "text", "CodeListItem": [{"CodedValue": "Participant refused", "Decode": {"TranslatedText": [{"_content": "Participant refused", "Type": "text/plain", "lang": "en"}]}}, {"CodedValue": "Participant unable for physical reasons", "Decode": {"TranslatedText": [{"_content": "Participant unable for physical reasons", "Type": "text/plain", "lang": "en"}]}}, {"CodedValue": "Participant unable for cognitive reasons", "Decode": {"TranslatedText": [{"_content": "Participant unable for cognitive reasons", "Type": "text/plain", "lang": "en"}]}}, {"CodedValue": "Not done for reasons other than physical/cognitive", "Decode": {"TranslatedText": [{"_content": "Not done for reasons other than physical/cognitive", "Type": "text/plain", "lang": "en"}]}}]}, {"OID": "CL.ADASCOGSC_08_ADCRGT03_3.ADCRGT03_FTREASND", "Name": "ADCRGT03-FTREASND", "DataType": "text", "CodeListItem": [{"CodedValue": "Participant refused", "Decode": {"TranslatedText": [{"_content": "Participant refused", "Type": "text/plain", "lang": "en"}]}}, {"CodedValue": "Participant unable for physical reasons", "Decode": {"TranslatedText": [{"_content": "Participant unable for physical reasons", "Type": "text/plain", "lang": "en"}]}}, {"CodedValue": "Participant unable for cognitive reasons", "Decode": {"TranslatedText": [{"_content": "Participant unable for cognitive reasons", "Type": "text/plain", "lang": "en"}]}}, {"CodedValue": "Not done for reasons other than physical/cognitive", "Decode": {"TranslatedText": [{"_content": "Not done for reasons other than physical/cognitive", "Type": "text/plain", "lang": "en"}]}}]}, {"OID": "CL.ADASCOGSC_08_ADCRG_4.ADCRG_FTORRES", "Name": "ADCRG-FTORRES", "DataType": "decimal", "CodeListItem": [{"CodedValue": "0", "Decode": {"TranslatedText": [{"_content": "0", "Type": "text/plain", "lang": "en"}]}}, {"CodedValue": "0.33", "Decode": {"TranslatedText": [{"_content": "0.33", "Type": "text/plain", "lang": "en"}]}}, {"CodedValue": "0.67", "Decode": {"TranslatedText": [{"_content": "0.67", "Type": "text/plain", "lang": "en"}]}}, {"CodedValue": "1", "Decode": {"TranslatedText": [{"_content": "1", "Type": "text/plain", "lang": "en"}]}}, {"CodedValue": "1.33", "Decode": {"TranslatedText": [{"_content": "1.33", "Type": "text/plain", "lang": "en"}]}}, {"CodedValue": "1.67", "Decode": {"TranslatedText": [{"_content": "1.67", "Type": "text/plain", "lang": "en"}]}}, {"CodedValue": "2", "Decode": {"TranslatedText": [{"_content": "2", "Type": "text/plain", "lang": "en"}]}}, {"CodedValue": "2.33", "Decode": {"TranslatedText": [{"_content": "2.33", "Type": "text/plain", "lang": "en"}]}}, {"CodedValue": "2.67", "Decode": {"TranslatedText": [{"_content": "2.67", "Type": "text/plain", "lang": "en"}]}}, {"CodedValue": "3", "Decode": {"TranslatedText": [{"_content": "3", "Type": "text/plain", "lang": "en"}]}}, {"CodedValue": "3.33", "Decode": {"TranslatedText": [{"_content": "3.33", "Type": "text/plain", "lang": "en"}]}}, {"CodedValue": "3.67", "Decode": {"TranslatedText": [{"_content": "3.67", "Type": "text/plain", "lang": "en"}]}}, {"CodedValue": "4", "Decode": {"TranslatedText": [{"_content": "4", "Type": "text/plain", "lang": "en"}]}}, {"CodedValue": "4.33", "Decode": {"TranslatedText": [{"_content": "4.33", "Type": "text/plain", "lang": "en"}]}}, {"CodedValue": "4.67", "Decode": {"TranslatedText": [{"_content": "4.67", "Type": "text/plain", "lang": "en"}]}}, {"CodedValue": "5", "Decode": {"TranslatedText": [{"_content": "5", "Type": "text/plain", "lang": "en"}]}}, {"CodedValue": "5.33", "Decode": {"TranslatedText": [{"_content": "5.33", "Type": "text/plain", "lang": "en"}]}}, {"CodedValue": "5.67", "Decode": {"TranslatedText": [{"_content": "5.67", "Type": "text/plain", "lang": "en"}]}}, {"CodedValue": "6", "Decode": {"TranslatedText": [{"_content": "6", "Type": "text/plain", "lang": "en"}]}}, {"CodedValue": "6.33", "Decode": {"TranslatedText": [{"_content": "6.33", "Type": "text/plain", "lang": "en"}]}}, {"CodedValue": "6.67", "Decode": {"TranslatedText": [{"_content": "6.67", "Type": "text/plain", "lang": "en"}]}}, {"CodedValue": "7", "Decode": {"TranslatedText": [{"_content": "7", "Type": "text/plain", "lang": "en"}]}}, {"CodedValue": "7.33", "Decode": {"TranslatedText": [{"_content": "7.33", "Type": "text/plain", "lang": "en"}]}}, {"CodedValue": "7.67", "Decode": {"TranslatedText": [{"_content": "7.67", "Type": "text/plain", "lang": "en"}]}}, {"CodedValue": "8", "Decode": {"TranslatedText": [{"_content": "8", "Type": "text/plain", "lang": "en"}]}}, {"CodedValue": "8.33", "Decode": {"TranslatedText": [{"_content": "8.33", "Type": "text/plain", "lang": "en"}]}}, {"CodedValue": "8.67", "Decode": {"TranslatedText": [{"_content": "8.67", "Type": "text/plain", "lang": "en"}]}}, {"CodedValue": "9", "Decode": {"TranslatedText": [{"_content": "9", "Type": "text/plain", "lang": "en"}]}}, {"CodedValue": "9.33", "Decode": {"TranslatedText": [{"_content": "9.33", "Type": "text/plain", "lang": "en"}]}}, {"CodedValue": "9.67", "Decode": {"TranslatedText": [{"_content": "9.67", "Type": "text/plain", "lang": "en"}]}}, {"CodedValue": "10", "Decode": {"TranslatedText": [{"_content": "10", "Type": "text/plain", "lang": "en"}]}}, {"CodedValue": "10.33", "Decode": {"TranslatedText": [{"_content": "10.33", "Type": "text/plain", "lang": "en"}]}}, {"CodedValue": "10.67", "Decode": {"TranslatedText": [{"_content": "10.67", "Type": "text/plain", "lang": "en"}]}}, {"CodedValue": "11", "Decode": {"TranslatedText": [{"_content": "11", "Type": "text/plain", "lang": "en"}]}}, {"CodedValue": "11.33", "Decode": {"TranslatedText": [{"_content": "11.33", "Type": "text/plain", "lang": "en"}]}}, {"CodedValue": "11.67", "Decode": {"TranslatedText": [{"_content": "11.67", "Type": "text/plain", "lang": "en"}]}}, {"CodedValue": "12", "Decode": {"TranslatedText": [{"_content": "12", "Type": "text/plain", "lang": "en"}]}}]}, {"OID": "CL.ADASCOGSC_08_ADCRG_4.ADCRG_FTREASND", "Name": "ADCRG-FTREASND", "DataType": "text", "CodeListItem": [{"CodedValue": "Participant refused", "Decode": {"TranslatedText": [{"_content": "Participant refused", "Type": "text/plain", "lang": "en"}]}}, {"CodedValue": "Participant unable for physical reasons", "Decode": {"TranslatedText": [{"_content": "Participant unable for physical reasons", "Type": "text/plain", "lang": "en"}]}}, {"CodedValue": "Participant unable for cognitive reasons", "Decode": {"TranslatedText": [{"_content": "Participant unable for cognitive reasons", "Type": "text/plain", "lang": "en"}]}}, {"CodedValue": "Not done for reasons other than physical/cognitive", "Decode": {"TranslatedText": [{"_content": "Not done for reasons other than physical/cognitive", "Type": "text/plain", "lang": "en"}]}}]}, {"OID": "CL.ADASCOGSC_09_ADCRI_1.ADCRI_FTORRES", "Name": "ADCRI-FTORRES", "DataType": "text", "CodeListItem": [{"CodedValue": "Subject never needs extra reminders of instructions", "Decode": {"TranslatedText": [{"_content": "Subject never needs extra reminders of instructions", "Type": "text/plain", "lang": "en"}]}}, {"CodedValue": "Very mild - forgets once", "Decode": {"TranslatedText": [{"_content": "Very mild - forgets once", "Type": "text/plain", "lang": "en"}]}}, {"CodedValue": "Mild - must be reminded 2 times", "Decode": {"TranslatedText": [{"_content": "Mild - must be reminded 2 times", "Type": "text/plain", "lang": "en"}]}}, {"CodedValue": "Moderate - must be reminded 3 or 4 times", "Decode": {"TranslatedText": [{"_content": "Moderate - must be reminded 3 or 4 times", "Type": "text/plain", "lang": "en"}]}}, {"CodedValue": "Moderately severe - must be reminded 5 or 6 times", "Decode": {"TranslatedText": [{"_content": "Moderately severe - must be reminded 5 or 6 times", "Type": "text/plain", "lang": "en"}]}}, {"CodedValue": "Severe - must be reminded 7 or more times", "Decode": {"TranslatedText": [{"_content": "Severe - must be reminded 7 or more times", "Type": "text/plain", "lang": "en"}]}}]}, {"OID": "CL.ADASCOGSC_09_ADCRI_1.ADCRI_FTREASND", "Name": "ADCRI-FTREASND", "DataType": "text", "CodeListItem": [{"CodedValue": "Participant refused", "Decode": {"TranslatedText": [{"_content": "Participant refused", "Type": "text/plain", "lang": "en"}]}}, {"CodedValue": "Participant unable for physical reasons", "Decode": {"TranslatedText": [{"_content": "Participant unable for physical reasons", "Type": "text/plain", "lang": "en"}]}}, {"CodedValue": "Participant unable for cognitive reasons", "Decode": {"TranslatedText": [{"_content": "Participant unable for cognitive reasons", "Type": "text/plain", "lang": "en"}]}}, {"CodedValue": "Not done for reasons other than physical/cognitive", "Decode": {"TranslatedText": [{"_content": "Not done for reasons other than physical/cognitive", "Type": "text/plain", "lang": "en"}]}}]}, {"OID": "CL.ADASCOGSC_10_ADCSL_1.ADCSL_FTORRES", "Name": "ADCSL-FTORRES", "DataType": "text", "CodeListItem": [{"CodedValue": "No instances where it is difficult to understand the subject", "Decode": {"TranslatedText": [{"_content": "No instances where it is difficult to understand the subject", "Type": "text/plain", "lang": "en"}]}}, {"CodedValue": "Very mild - one instance of lack of understandability", "Decode": {"TranslatedText": [{"_content": "Very mild - one instance of lack of understandability", "Type": "text/plain", "lang": "en"}]}}, {"CodedValue": "Mild - patient has difficulty less than 25% of the time", "Decode": {"TranslatedText": [{"_content": "Mild - patient has difficulty less than 25% of the time", "Type": "text/plain", "lang": "en"}]}}, {"CodedValue": "Moderate - patient has difficulty 25-50% of the time", "Decode": {"TranslatedText": [{"_content": "Moderate - patient has difficulty 25-50% of the time", "Type": "text/plain", "lang": "en"}]}}, {"CodedValue": "Moderately severe - patient has difficulty 50% of the time", "Decode": {"TranslatedText": [{"_content": "Moderately severe - patient has difficulty 50% of the time", "Type": "text/plain", "lang": "en"}]}}, {"CodedValue": "Severe - one or two word utterance - fluent, but empty speech, mute", "Decode": {"TranslatedText": [{"_content": "Severe - one or two word utterance - fluent, but empty speech, mute", "Type": "text/plain", "lang": "en"}]}}]}, {"OID": "CL.ADASCOGSC_11_ADCDIF_1.ADCDIF_FTORRES", "Name": "ADCDIF-FTORRES", "DataType": "text", "CodeListItem": [{"CodedValue": "No evidence of word finding difficulty in spontaneous speech", "Decode": {"TranslatedText": [{"_content": "No evidence of word finding difficulty in spontaneous speech", "Type": "text/plain", "lang": "en"}]}}, {"CodedValue": "Very mild - 1 or 2 instances, not clinically significant", "Decode": {"TranslatedText": [{"_content": "Very mild - 1 or 2 instances, not clinically significant", "Type": "text/plain", "lang": "en"}]}}, {"CodedValue": "Mild - noticeable circumlocution or synonym substitution", "Decode": {"TranslatedText": [{"_content": "Mild - noticeable circumlocution or synonym substitution", "Type": "text/plain", "lang": "en"}]}}, {"CodedValue": "Moderate - loss of words without compensation on occasion", "Decode": {"TranslatedText": [{"_content": "Moderate - loss of words without compensation on occasion", "Type": "text/plain", "lang": "en"}]}}, {"CodedValue": "Moderately severe - frequent loss of words without compensation", "Decode": {"TranslatedText": [{"_content": "Moderately severe - frequent loss of words without compensation", "Type": "text/plain", "lang": "en"}]}}, {"CodedValue": "Severe - nearly total loss of content of words, speech sounds empty, 1-2 word utterances", "Decode": {"TranslatedText": [{"_content": "Severe - nearly total loss of content of words, speech sounds empty, 1-2 word utterances", "Type": "text/plain", "lang": "en"}]}}]}, {"OID": "CL.ADASCOGSC_11_ADCDIF_1.ADCDIF_FTREASND", "Name": "ADCDIF-FTREASND", "DataType": "text", "CodeListItem": [{"CodedValue": "Participant refused", "Decode": {"TranslatedText": [{"_content": "Participant refused", "Type": "text/plain", "lang": "en"}]}}, {"CodedValue": "Participant unable for physical reasons", "Decode": {"TranslatedText": [{"_content": "Participant unable for physical reasons", "Type": "text/plain", "lang": "en"}]}}, {"CodedValue": "Participant unable for cognitive reasons", "Decode": {"TranslatedText": [{"_content": "Participant unable for cognitive reasons", "Type": "text/plain", "lang": "en"}]}}, {"CodedValue": "Not done for reasons other than physical/cognitive", "Decode": {"TranslatedText": [{"_content": "Not done for reasons other than physical/cognitive", "Type": "text/plain", "lang": "en"}]}}]}, {"OID": "CL.ADASCOGSC_12_ADCCMP_1.ADCCMP_FTORRES", "Name": "ADCCMP-FTORRES", "DataType": "text", "CodeListItem": [{"CodedValue": "No evidence of poor comprehension", "Decode": {"TranslatedText": [{"_content": "No evidence of poor comprehension", "Type": "text/plain", "lang": "en"}]}}, {"CodedValue": "Very mild - 1 or 2 instances of misunderstanding", "Decode": {"TranslatedText": [{"_content": "Very mild - 1 or 2 instances of misunderstanding", "Type": "text/plain", "lang": "en"}]}}, {"CodedValue": "Mild - 3-5 instances of misunderstanding", "Decode": {"TranslatedText": [{"_content": "Mild - 3-5 instances of misunderstanding", "Type": "text/plain", "lang": "en"}]}}, {"CodedValue": "Moderate - requires several repetitions and rephrasings", "Decode": {"TranslatedText": [{"_content": "Moderate - requires several repetitions and rephrasings", "Type": "text/plain", "lang": "en"}]}}, {"CodedValue": "Moderately severe - patient only occasionally responds correctly (i.e., yes/no questions)", "Decode": {"TranslatedText": [{"_content": "Moderately severe - patient only occasionally responds correctly (i.e., yes/no questions)", "Type": "text/plain", "lang": "en"}]}}, {"CodedValue": "Severe - patient rarely responds to questions appropriately, not due to poverty of speech", "Decode": {"TranslatedText": [{"_content": "Severe - patient rarely responds to questions appropriately, not due to poverty of speech", "Type": "text/plain", "lang": "en"}]}}]}, {"OID": "CL.ADASCOGSC_13_ADCCON_1.ADCCON_FTORRES", "Name": "ADCCON-FTORRES", "DataType": "text", "CodeListItem": [{"CodedValue": "No evidence of poor concentration or distractibility", "Decode": {"TranslatedText": [{"_content": "No evidence of poor concentration or distractibility", "Type": "text/plain", "lang": "en"}]}}, {"CodedValue": "Very mild - one instance of poor concentration", "Decode": {"TranslatedText": [{"_content": "Very mild - one instance of poor concentration", "Type": "text/plain", "lang": "en"}]}}, {"CodedValue": "Mild - 2-3 instances of poor concentration/distractibility, signs of restlessness and inattentiveness", "Decode": {"TranslatedText": [{"_content": "Mild - 2-3 instances of poor concentration/distractibility, signs of restlessness and inattentiveness", "Type": "text/plain", "lang": "en"}]}}, {"CodedValue": "Moderate - 4-5 instances during interview", "Decode": {"TranslatedText": [{"_content": "Moderate - 4-5 instances during interview", "Type": "text/plain", "lang": "en"}]}}, {"CodedValue": "Moderately severe - poor concentration/distractibility throughout much of interview", "Decode": {"TranslatedText": [{"_content": "Moderately severe - poor concentration/distractibility throughout much of interview", "Type": "text/plain", "lang": "en"}]}}, {"CodedValue": "Severe - extreme difficulty in concentration and extremely distractible, unable to complete tasks", "Decode": {"TranslatedText": [{"_content": "Severe - extreme difficulty in concentration and extremely distractible, unable to complete tasks", "Type": "text/plain", "lang": "en"}]}}]}, {"OID": "CL.ADASCOGSC_13_ADCCON_1.ADCCON_FTREASND", "Name": "ADCCON-FTREASND", "DataType": "text", "CodeListItem": [{"CodedValue": "Participant refused", "Decode": {"TranslatedText": [{"_content": "Participant refused", "Type": "text/plain", "lang": "en"}]}}, {"CodedValue": "Participant unable for physical reasons", "Decode": {"TranslatedText": [{"_content": "Participant unable for physical reasons", "Type": "text/plain", "lang": "en"}]}}, {"CodedValue": "Participant unable for cognitive reasons", "Decode": {"TranslatedText": [{"_content": "Participant unable for cognitive reasons", "Type": "text/plain", "lang": "en"}]}}, {"CodedValue": "Not done for reasons other than physical/cognitive", "Decode": {"TranslatedText": [{"_content": "Not done for reasons other than physical/cognitive", "Type": "text/plain", "lang": "en"}]}}]}, {"OID": "CL.ADASCOGSC_14_ADCNC01_1.ADCNC01_FTREASND", "Name": "ADCNC01-FTREASND", "DataType": "text", "CodeListItem": [{"CodedValue": "Participant refused", "Decode": {"TranslatedText": [{"_content": "Participant refused", "Type": "text/plain", "lang": "en"}]}}, {"CodedValue": "Participant unable for physical reasons", "Decode": {"TranslatedText": [{"_content": "Participant unable for physical reasons", "Type": "text/plain", "lang": "en"}]}}, {"CodedValue": "Participant unable for cognitive reasons", "Decode": {"TranslatedText": [{"_content": "Participant unable for cognitive reasons", "Type": "text/plain", "lang": "en"}]}}, {"CodedValue": "Not done for reasons other than physical/cognitive", "Decode": {"TranslatedText": [{"_content": "Not done for reasons other than physical/cognitive", "Type": "text/plain", "lang": "en"}]}}]}, {"OID": "CL.ADASCOGSC_14_ADCNC02_2.ADCNC02_FTREASND", "Name": "ADCNC02-FTREASND", "DataType": "text", "CodeListItem": [{"CodedValue": "Participant refused", "Decode": {"TranslatedText": [{"_content": "Participant refused", "Type": "text/plain", "lang": "en"}]}}, {"CodedValue": "Participant unable for physical reasons", "Decode": {"TranslatedText": [{"_content": "Participant unable for physical reasons", "Type": "text/plain", "lang": "en"}]}}, {"CodedValue": "Participant unable for cognitive reasons", "Decode": {"TranslatedText": [{"_content": "Participant unable for cognitive reasons", "Type": "text/plain", "lang": "en"}]}}, {"CodedValue": "Not done for reasons other than physical/cognitive", "Decode": {"TranslatedText": [{"_content": "Not done for reasons other than physical/cognitive", "Type": "text/plain", "lang": "en"}]}}]}, {"OID": "CL.ADASCOGSC_14_ADCNC03_3.ADCNC03_FTREASND", "Name": "ADCNC03-FTREASND", "DataType": "text", "CodeListItem": [{"CodedValue": "Participant refused", "Decode": {"TranslatedText": [{"_content": "Participant refused", "Type": "text/plain", "lang": "en"}]}}, {"CodedValue": "Participant unable for physical reasons", "Decode": {"TranslatedText": [{"_content": "Participant unable for physical reasons", "Type": "text/plain", "lang": "en"}]}}, {"CodedValue": "Participant unable for cognitive reasons", "Decode": {"TranslatedText": [{"_content": "Participant unable for cognitive reasons", "Type": "text/plain", "lang": "en"}]}}, {"CodedValue": "Not done for reasons other than physical/cognitive", "Decode": {"TranslatedText": [{"_content": "Not done for reasons other than physical/cognitive", "Type": "text/plain", "lang": "en"}]}}]}, {"OID": "CL.ADASCOGSC_14_ADCNC_4.ADCNC_FTREASND", "Name": "ADCNC-FTREASND", "DataType": "text", "CodeListItem": [{"CodedValue": "Participant refused", "Decode": {"TranslatedText": [{"_content": "Participant refused", "Type": "text/plain", "lang": "en"}]}}, {"CodedValue": "Participant unable for physical reasons", "Decode": {"TranslatedText": [{"_content": "Participant unable for physical reasons", "Type": "text/plain", "lang": "en"}]}}, {"CodedValue": "Participant unable for cognitive reasons", "Decode": {"TranslatedText": [{"_content": "Participant unable for cognitive reasons", "Type": "text/plain", "lang": "en"}]}}, {"CodedValue": "Not done for reasons other than physical/cognitive", "Decode": {"TranslatedText": [{"_content": "Not done for reasons other than physical/cognitive", "Type": "text/plain", "lang": "en"}]}}]}, {"OID": "CL.ADASCOGSC_15_ADCMZ01_1.ADCMZ01_FTORRES", "Name": "ADCMZ01-FTORRES", "DataType": "integer", "CodeListItem": [{"CodedValue": "0", "Decode": {"TranslatedText": [{"_content": "0", "Type": "text/plain", "lang": "en"}]}}, {"CodedValue": "1", "Decode": {"TranslatedText": [{"_content": "1", "Type": "text/plain", "lang": "en"}]}}, {"CodedValue": "2", "Decode": {"TranslatedText": [{"_content": "2", "Type": "text/plain", "lang": "en"}]}}]}, {"OID": "CL.ADASCOGSC_15_ADCMZ01_1.ADCMZ01_FTREASND", "Name": "ADCMZ01-FTREASND", "DataType": "text", "CodeListItem": [{"CodedValue": "Participant refused", "Decode": {"TranslatedText": [{"_content": "Participant refused", "Type": "text/plain", "lang": "en"}]}}, {"CodedValue": "Participant unable for physical reasons", "Decode": {"TranslatedText": [{"_content": "Participant unable for physical reasons", "Type": "text/plain", "lang": "en"}]}}, {"CodedValue": "Participant unable for cognitive reasons", "Decode": {"TranslatedText": [{"_content": "Participant unable for cognitive reasons", "Type": "text/plain", "lang": "en"}]}}, {"CodedValue": "Not done for reasons other than physical/cognitive", "Decode": {"TranslatedText": [{"_content": "Not done for reasons other than physical/cognitive", "Type": "text/plain", "lang": "en"}]}}]}, {"OID": "CL.ADASCOGSC_15_ADCMZ02_2.ADCMZ02_FTREASND", "Name": "ADCMZ02-FTREASND", "DataType": "text", "CodeListItem": [{"CodedValue": "Participant refused", "Decode": {"TranslatedText": [{"_content": "Participant refused", "Type": "text/plain", "lang": "en"}]}}, {"CodedValue": "Participant unable for physical reasons", "Decode": {"TranslatedText": [{"_content": "Participant unable for physical reasons", "Type": "text/plain", "lang": "en"}]}}, {"CodedValue": "Participant unable for cognitive reasons", "Decode": {"TranslatedText": [{"_content": "Participant unable for cognitive reasons", "Type": "text/plain", "lang": "en"}]}}, {"CodedValue": "Not done for reasons other than physical/cognitive", "Decode": {"TranslatedText": [{"_content": "Not done for reasons other than physical/cognitive", "Type": "text/plain", "lang": "en"}]}}]}, {"OID": "CL.ADASCOGSC_15_ADCMZ_3.ADCMZ_FTREASND", "Name": "ADCMZ-FTREASND", "DataType": "text", "CodeListItem": [{"CodedValue": "Participant refused", "Decode": {"TranslatedText": [{"_content": "Participant refused", "Type": "text/plain", "lang": "en"}]}}, {"CodedValue": "Participant unable for physical reasons", "Decode": {"TranslatedText": [{"_content": "Participant unable for physical reasons", "Type": "text/plain", "lang": "en"}]}}, {"CodedValue": "Participant unable for cognitive reasons", "Decode": {"TranslatedText": [{"_content": "Participant unable for cognitive reasons", "Type": "text/plain", "lang": "en"}]}}, {"CodedValue": "Not done for reasons other than physical/cognitive", "Decode": {"TranslatedText": [{"_content": "Not done for reasons other than physical/cognitive", "Type": "text/plain", "lang": "en"}]}}]}]}]}]}